sep=;
ACCELEROMETER X (m/s²);ACCELEROMETER Y (m/s²);ACCELEROMETER Z (m/s²);GRAVITY X (m/s²);GRAVITY Y (m/s²);GRAVITY Z (m/s²);LINEAR ACCELERATION X (m/s²);LINEAR ACCELERATION Y (m/s²);LINEAR ACCELERATION Z (m/s²);GYROSCOPE X (rad/s);GYROSCOPE Y (rad/s);GYROSCOPE Z (rad/s);LIGHT (lux);MAGNETIC FIELD X (μT);MAGNETIC FIELD Y (μT);MAGNETIC FIELD Z (μT);ORIENTATION Z (azimuth °);ORIENTATION X (pitch °);ORIENTATION Y (roll °);PROXIMITY (i);ATMOSPHERIC PRESSURE (hPa);SOUND LEVEL (dB);LOCATION Latitude : ;LOCATION Longitude : ;LOCATION Altitude ( m);LOCATION Altitude-google ( m);LOCATION Altitude-atmospheric pressure ( m);LOCATION Speed ( Kmh);LOCATION Accuracy ( m);LOCATION ORIENTATION (°);Satellites in range;Time since start in ms ;YYYY-MO-DD HH-MI-SS_SSS
-0.3439;5.345;8.0457;-0.7648;5.5062;8.0829;-0.0989;-0.1617;-0.8731;0.0342;-0.1359;-0.0272;2.093;-5.16;-14.76;-20.44;102.36;-34.14;5.41;2.0;1002.59;24.127;30.281075;-97.70938;483.6;532.9269256788153;;0.0;51.870968;;0 / 20;15;2018-02-21 20:31:52:445
-0.3439;5.345;8.0457;-0.7648;5.5062;8.0829;-0.0989;-0.1617;-0.8731;0.0342;-0.1359;-0.0272;2.093;-5.16;-14.76;-20.44;102.36;-34.14;5.41;2.0;1002.59;24.127;30.281075;-97.70938;483.6;532.9269256788153;;0.0;51.870968;;0 / 20;26;2018-02-21 20:31:52:456
-0.3439;5.345;8.0457;-0.9592;5.3533;8.1645;-0.0989;-0.1617;-0.8731;0.0342;-0.1359;-0.0272;2.093;-5.16;-14.76;-20.44;102.36;-34.14;5.41;2.0;1002.59;24.127;30.281075;-97.70938;483.6;532.9269256788153;;0.0;51.870968;;0 / 20;35;2018-02-21 20:31:52:465
-0.3439;5.345;8.0457;-0.9592;5.3533;8.1645;-0.0989;-0.1617;-0.8731;0.1788;0.0999;-0.0853;2.093;-5.16;-14.76;-20.44;102.36;-34.14;5.41;2.0;1002.59;24.127;30.281075;-97.70938;483.6;532.9269256788153;;0.0;51.870968;;0 / 20;46;2018-02-21 20:31:52:476
-0.3439;5.345;8.0457;-0.9592;5.3533;8.1645;-0.0989;-0.1617;-0.8731;0.1788;0.0999;-0.0853;2.093;-5.56;-14.96;-21.54;96.88;-33.07;6.7;2.0;1002.59;24.127;30.281075;-97.70938;483.6;532.9269256788153;;0.0;51.870968;;0 / 20;55;2018-02-21 20:31:52:485
-0.3439;5.345;8.0457;-0.9592;5.3533;8.1645;-1.4781;0.3894;-1.1181;0.1788;0.0999;-0.0853;2.093;-5.56;-14.96;-21.54;96.88;-33.07;6.7;2.0;1002.59;10.269;30.281075;-97.70938;483.6;532.9269256788153;;0.0;51.870968;;0 / 20;66;2018-02-21 20:31:52:496
-0.3439;5.345;8.0457;-0.9592;5.3533;8.1645;-1.4781;0.3894;-1.1181;0.1788;0.0999;-0.0853;2.093;-5.56;-14.96;-21.54;96.88;-33.07;6.7;2.0;1002.59;10.269;30.281075;-97.70938;483.6;532.9269256788153;;0.0;51.870968;;0 / 20;75;2018-02-21 20:31:52:505
0.2729;5.2892;8.3252;-0.9592;5.3533;8.1645;-1.4781;0.3894;-1.1181;0.1788;0.0999;-0.0853;2.093;-5.56;-14.96;-21.54;96.88;-33.07;6.7;2.0;1002.59;10.269;30.281075;-97.70938;483.6;532.9269256788153;;0.0;51.870968;;0 / 20;86;2018-02-21 20:31:52:516
0.2729;5.2892;8.3252;-0.9592;5.3533;8.1645;-1.4781;0.3894;-1.1181;0.1788;0.0999;-0.0853;2.093;-5.56;-14.96;-21.54;96.88;-33.07;6.7;2.0;1002.59;10.269;30.281075;-97.70938;483.6;532.9269256788153;;0.0;51.870968;;0 / 20;96;2018-02-21 20:31:52:526
0.2729;5.2892;8.3252;-0.9592;5.3533;8.1645;-1.4781;0.3894;-1.1181;0.1788;0.0999;-0.0853;2.093;-5.56;-14.96;-21.54;96.88;-33.07;6.7;2.0;1002.59;10.269;30.281075;-97.70938;483.6;532.9269256788153;;0.0;51.870968;;0 / 20;106;2018-02-21 20:31:52:536
0.2729;5.2892;8.3252;-0.9592;5.3533;8.1645;-1.4781;0.3894;-1.1181;0.1788;0.0999;-0.0853;2.093;-5.56;-14.96;-21.54;96.88;-33.07;6.7;2.0;1002.59;10.269;30.281075;-97.70938;483.6;532.9269256788153;;0.0;51.870968;;0 / 20;116;2018-02-21 20:31:52:546
0.2729;5.2892;8.3252;-0.9592;5.3533;8.1645;-1.4781;0.3894;-1.1181;0.1788;0.0999;-0.0853;2.093;-5.56;-14.96;-21.54;96.88;-33.07;6.7;2.0;1002.59;10.269;30.281075;-97.70938;483.6;532.9269256788153;;0.0;51.870968;;0 / 20;126;2018-02-21 20:31:52:556
0.2729;5.2892;8.3252;-0.9592;5.3533;8.1645;-1.4781;0.3894;-1.1181;0.1788;0.0999;-0.0853;2.093;-5.56;-14.96;-21.54;96.88;-33.07;6.7;2.0;1002.59;10.269;30.281075;-97.70938;483.6;532.9269256788153;;0.0;51.870968;;0 / 20;135;2018-02-21 20:31:52:565
0.2729;5.2892;8.3252;-0.9592;5.3533;8.1645;-1.4781;0.3894;-1.1181;0.1788;0.0999;-0.0853;2.093;-5.56;-14.96;-21.54;96.88;-33.07;6.7;2.0;1002.59;10.269;30.281075;-97.70938;483.6;532.9269256788153;;0.0;51.870968;;0 / 20;145;2018-02-21 20:31:52:575
0.2729;5.2892;8.3252;-0.9592;5.3533;8.1645;-1.4781;0.3894;-1.1181;0.1788;0.0999;-0.0853;2.093;-5.56;-14.96;-21.54;96.88;-33.07;6.7;2.0;1002.59;10.269;30.281075;-97.70938;483.6;532.9269256788153;;0.0;51.870968;;0 / 20;156;2018-02-21 20:31:52:586
0.2729;5.2892;8.3252;-0.4851;5.6089;8.0338;-1.4781;0.3894;-1.1181;0.1788;0.0999;-0.0853;2.093;-5.56;-14.96;-21.54;96.88;-33.07;6.7;2.0;1002.59;10.269;30.281075;-97.70938;483.6;532.9269256788153;;0.0;51.870968;;0 / 20;166;2018-02-21 20:31:52:596
0.2729;5.2892;8.3252;-0.4851;5.6089;8.0338;-1.2052;1.3165;-0.4728;0.3743;-0.5343;0.68;2.093;-6.16;-14.71;-20.09;98.68;-34.87;3.46;2.0;1002.59;10.269;30.281075;-97.70938;483.6;532.9269256788153;;0.0;51.870968;;0 / 20;176;2018-02-21 20:31:52:606
0.2729;5.2892;8.3252;-0.4851;5.6089;8.0338;-1.2052;1.3165;-0.4728;0.3743;-0.5343;0.68;2.093;-6.16;-14.71;-20.09;98.68;-34.87;3.46;2.0;1002.59;10.269;30.281075;-97.70938;483.6;532.9269256788153;;0.0;51.870968;;0 / 20;186;2018-02-21 20:31:52:616
0.2729;5.2892;8.3252;-0.4851;5.6089;8.0338;-1.2052;1.3165;-0.4728;0.3743;-0.5343;0.68;2.093;-6.16;-14.71;-20.09;98.68;-34.87;3.46;2.0;1002.59;10.269;30.281075;-97.70938;483.6;532.9269256788153;;0.0;51.870968;;0 / 20;195;2018-02-21 20:31:52:625
0.2729;5.2892;8.3252;-0.4851;5.6089;8.0338;-1.2052;1.3165;-0.4728;0.3743;-0.5343;0.68;2.093;-6.16;-14.71;-20.09;98.68;-34.87;3.46;2.0;1002.59;10.269;30.281075;-97.70938;483.6;532.9269256788153;;0.0;51.870968;;0 / 20;206;2018-02-21 20:31:52:636
0.2729;5.2892;8.3252;-0.4851;5.6089;8.0338;-1.2052;1.3165;-0.4728;0.3743;-0.5343;0.68;2.093;-6.16;-14.71;-20.09;98.68;-34.87;3.46;2.0;1002.59;10.269;30.281075;-97.70938;483.6;532.9269256788153;;0.0;51.870968;;0 / 20;215;2018-02-21 20:31:52:645
0.1591;4.3235;8.6823;-0.4851;5.6089;8.0338;-1.2052;1.3165;-0.4728;0.3743;-0.5343;0.68;2.093;-6.16;-14.71;-20.09;98.68;-34.87;3.46;2.0;1002.59;10.269;30.281075;-97.70938;483.6;532.9269256788153;;0.0;51.870968;;0 / 20;226;2018-02-21 20:31:52:656
0.1591;4.3235;8.6823;-0.4851;5.6089;8.0338;-1.2052;1.3165;-0.4728;0.3743;-0.5343;0.68;2.093;-6.16;-14.71;-20.09;98.68;-34.87;3.46;2.0;1002.59;10.269;30.281075;-97.70938;483.6;532.9269256788153;;0.0;51.870968;;0 / 20;236;2018-02-21 20:31:52:666
0.1591;4.3235;8.6823;-0.4851;5.6089;8.0338;-1.2052;1.3165;-0.4728;0.3743;-0.5343;0.68;2.093;-6.16;-14.71;-20.09;98.68;-34.87;3.46;2.0;1002.59;10.269;30.281075;-97.70938;483.6;532.9269256788153;;0.0;51.870968;;0 / 20;245;2018-02-21 20:31:52:675
0.1591;4.3235;8.6823;-0.4851;5.6089;8.0338;-1.2052;1.3165;-0.4728;0.3743;-0.5343;0.68;2.093;-6.16;-14.71;-20.09;98.68;-34.87;3.46;2.0;1002.59;10.269;30.281075;-97.70938;483.6;532.9269256788153;;0.0;51.870968;;0 / 20;256;2018-02-21 20:31:52:686
0.1591;4.3235;8.6823;-0.4851;5.6089;8.0338;-1.2052;1.3165;-0.4728;0.3743;-0.5343;0.68;2.093;-6.16;-14.71;-20.09;98.68;-34.87;3.46;2.0;1002.59;10.269;30.281075;-97.70938;483.6;532.9269256788153;;0.0;51.870968;;0 / 20;266;2018-02-21 20:31:52:696
0.1591;4.3235;8.6823;-0.4851;5.6089;8.0338;-1.2052;1.3165;-0.4728;0.3743;-0.5343;0.68;2.093;-6.16;-14.71;-20.09;98.68;-34.87;3.46;2.0;1002.59;10.269;30.281075;-97.70938;483.6;532.9269256788153;;0.0;51.870968;;0 / 20;275;2018-02-21 20:31:52:705
0.1591;4.3235;8.6823;0.0711;5.2677;8.2754;-1.2052;1.3165;-0.4728;0.3743;-0.5343;0.68;2.093;-10.16;-12.76;-19.44;90.86;-34.87;3.46;2.0;1002.59;10.269;30.281075;-97.70938;483.6;532.9269256788153;;0.0;51.870968;;0 / 20;285;2018-02-21 20:31:52:715
0.1591;4.3235;8.6823;0.0711;5.2677;8.2754;-0.9147;-0.5728;-0.6927;-0.9977;0.722;0.95;2.093;-10.16;-12.76;-19.44;90.86;-34.87;3.46;2.0;1002.59;10.269;30.281075;-97.70938;483.6;532.9269256788153;;0.0;51.870968;;0 / 20;296;2018-02-21 20:31:52:726
0.1591;4.3235;8.6823;0.0711;5.2677;8.2754;-0.9147;-0.5728;-0.6927;-0.9977;0.722;0.95;2.093;-10.16;-12.76;-19.44;90.86;-34.87;3.46;2.0;1002.59;10.269;30.281075;-97.70938;483.6;532.9269256788153;;0.0;51.870968;;0 / 20;305;2018-02-21 20:31:52:735
0.1591;4.3235;8.6823;0.0711;5.2677;8.2754;-0.9147;-0.5728;-0.6927;-0.9977;0.722;0.95;2.093;-10.16;-12.76;-19.44;90.86;-34.87;3.46;2.0;1002.59;10.269;30.281075;-97.70938;483.6;532.9269256788153;;0.0;51.870968;;0 / 20;315;2018-02-21 20:31:52:745
0.1591;4.3235;8.6823;0.0711;5.2677;8.2754;-0.9147;-0.5728;-0.6927;-0.9977;0.722;0.95;2.093;-10.16;-12.76;-19.44;90.86;-34.87;3.46;2.0;1002.59;10.269;30.281075;-97.70938;483.6;532.9269256788153;;0.0;51.870968;;0 / 20;326;2018-02-21 20:31:52:756
0.1591;4.3235;8.6823;0.0711;5.2677;8.2754;-0.9147;-0.5728;-0.6927;-0.9977;0.722;0.95;2.093;-10.16;-12.76;-19.44;90.86;-34.87;3.46;2.0;1002.59;10.269;30.281075;-97.70938;483.6;532.9269256788153;;0.0;51.870968;;0 / 20;335;2018-02-21 20:31:52:765
0.1591;4.3235;8.6823;0.0711;5.2677;8.2754;-0.9147;-0.5728;-0.6927;-0.9977;0.722;0.95;2.093;-10.16;-12.76;-19.44;90.86;-34.87;3.46;2.0;1002.59;10.269;30.281075;-97.70938;483.6;532.9269256788153;;0.0;51.870968;;0 / 20;346;2018-02-21 20:31:52:776
0.1591;4.3235;8.6823;0.0711;5.2677;8.2754;-0.9147;-0.5728;-0.6927;-0.9977;0.722;0.95;2.093;-10.16;-12.76;-19.44;90.86;-34.87;3.46;2.0;1002.59;10.269;30.281075;-97.70938;483.6;532.9269256788153;;0.0;51.870968;;0 / 20;356;2018-02-21 20:31:52:786
0.7867;5.5767;9.4743;0.0711;5.2677;8.2754;-0.9147;-0.5728;-0.6927;-0.9977;0.722;0.95;2.093;-10.16;-12.76;-19.44;90.86;-34.87;3.46;2.0;1002.59;10.269;30.281075;-97.70938;483.6;532.9269256788153;;0.0;51.870968;;0 / 20;365;2018-02-21 20:31:52:795
0.7867;5.5767;9.4743;0.0711;5.2677;8.2754;-0.9147;-0.5728;-0.6927;-0.9977;0.722;0.95;2.093;-10.16;-12.76;-19.44;90.86;-34.87;3.46;2.0;1002.6;10.269;30.281075;-97.70938;483.6;532.9269256788153;;0.0;51.870968;;0 / 20;375;2018-02-21 20:31:52:805
0.7867;5.5767;9.4743;0.0711;5.2677;8.2754;-0.9147;-0.5728;-0.6927;-0.9977;0.722;0.95;2.093;-10.16;-12.76;-19.44;90.86;-34.87;3.46;2.0;1002.6;10.269;30.281075;-97.70938;483.6;532.9269256788153;;0.0;51.870968;;0 / 20;386;2018-02-21 20:31:52:816
0.7867;5.5767;9.4743;0.0711;5.2677;8.2754;-0.9147;-0.5728;-0.6927;-0.9977;0.722;0.95;2.093;-10.16;-12.76;-19.44;90.86;-34.87;3.46;2.0;1002.6;19.334;30.281075;-97.70938;483.6;532.9269256788153;;0.0;51.870968;;0 / 20;395;2018-02-21 20:31:52:825
0.7867;5.5767;9.4743;0.0711;5.2677;8.2754;-0.7187;0.0854;0.0182;-0.9977;0.722;0.95;2.093;-10.56;-6.66;-26.69;51.25;-32.48;-0.49;2.0;1002.6;19.334;30.281075;-97.70938;483.6;532.9269256788153;;0.0;51.870968;;0 / 20;406;2018-02-21 20:31:52:836
0.7867;5.5767;9.4743;-0.1329;3.7492;9.0643;-0.7187;0.0854;0.0182;-1.0325;0.0284;0.5455;2.093;-10.56;-6.66;-26.69;51.25;-32.48;-0.49;2.0;1002.6;19.334;30.281075;-97.70938;483.6;532.9269256788153;;0.0;51.870968;;0 / 20;416;2018-02-21 20:31:52:846
0.7867;5.5767;9.4743;-0.1329;3.7492;9.0643;-0.7187;0.0854;0.0182;-1.0325;0.0284;0.5455;2.093;-10.56;-6.66;-26.69;51.25;-32.48;-0.49;2.0;1002.6;19.334;30.281075;-97.70938;483.6;532.9269256788153;;0.0;51.870968;;0 / 20;425;2018-02-21 20:31:52:855
0.7867;5.5767;9.4743;-0.1329;3.7492;9.0643;-0.7187;0.0854;0.0182;-1.0325;0.0284;0.5455;2.093;-10.56;-6.66;-26.69;51.25;-32.48;-0.49;2.0;1002.6;19.334;30.281075;-97.70938;483.6;532.9269256788153;;0.0;51.870968;;0 / 20;436;2018-02-21 20:31:52:866
0.7867;5.5767;9.4743;-0.1329;3.7492;9.0643;-0.7187;0.0854;0.0182;-1.0325;0.0284;0.5455;2.093;-10.56;-6.66;-26.69;51.25;-32.48;-0.49;2.0;1002.6;19.334;30.281075;-97.70938;483.6;532.9269256788153;;0.0;51.870968;;0 / 20;446;2018-02-21 20:31:52:876
0.7867;5.5767;9.4743;-0.1329;3.7492;9.0643;-0.7187;0.0854;0.0182;-1.0325;0.0284;0.5455;2.093;-10.56;-6.66;-26.69;51.25;-32.48;-0.49;2.0;1002.6;19.334;30.281075;-97.70938;483.6;532.9269256788153;;0.0;51.870968;;0 / 20;456;2018-02-21 20:31:52:886
0.7867;5.5767;9.4743;-0.1329;3.7492;9.0643;-0.7187;0.0854;0.0182;-1.0325;0.0284;0.5455;2.093;-10.56;-6.66;-26.69;51.25;-32.48;-0.49;2.0;1002.6;19.334;30.281075;-97.70938;483.6;532.9269256788153;;0.0;51.870968;;0 / 20;466;2018-02-21 20:31:52:896
0.7867;5.5767;9.4743;-0.1329;3.7492;9.0643;-0.7187;0.0854;0.0182;-1.0325;0.0284;0.5455;2.093;-10.56;-6.66;-26.69;51.25;-32.48;-0.49;2.0;1002.6;19.334;30.281075;-97.70938;483.6;532.9269256788153;;0.0;51.870968;;0 / 20;475;2018-02-21 20:31:52:905
0.7867;5.5767;9.4743;-0.1329;3.7492;9.0643;-0.7187;0.0854;0.0182;-1.0325;0.0284;0.5455;2.093;-10.56;-6.66;-26.69;51.25;-32.48;-0.49;2.0;1002.6;19.334;30.281075;-97.70938;483.6;532.9269256788153;;0.0;51.870968;;0 / 20;486;2018-02-21 20:31:52:916
0.7867;5.5767;9.4743;-0.1329;3.7492;9.0643;-0.7187;0.0854;0.0182;-1.0325;0.0284;0.5455;2.093;-10.56;-6.66;-26.69;51.25;-32.48;-0.49;2.0;1002.6;19.334;30.281075;-97.70938;483.6;532.9269256788153;;0.0;51.870968;;0 / 20;496;2018-02-21 20:31:52:926
0.5879;4.1002;9.823;-0.1329;3.7492;9.0643;-0.7187;0.0854;0.0182;-1.0325;0.0284;0.5455;2.093;-10.56;-6.66;-26.69;51.25;-32.48;-0.49;2.0;1002.6;19.334;30.281075;-97.70938;483.6;532.9269256788153;;0.0;51.870968;;0 / 20;506;2018-02-21 20:31:52:936
0.5879;4.1002;9.823;-0.1329;3.7492;9.0643;-0.7187;0.0854;0.0182;-1.0325;0.0284;0.5455;2.093;-11.86;-2.91;-29.19;56.44;-22.47;0.84;2.0;1002.6;19.334;30.281075;-97.70938;483.6;532.9269256788153;;0.0;51.870968;;0 / 20;515;2018-02-21 20:31:52:945
0.5879;4.1002;9.823;-0.1329;3.7492;9.0643;-0.6322;0.2863;-0.4122;-1.0325;0.0284;0.5455;2.093;-11.86;-2.91;-29.19;56.44;-22.47;0.84;2.0;1002.6;19.334;30.281075;-97.70938;483.6;532.9269256788153;;0.0;51.870968;;0 / 20;525;2018-02-21 20:31:52:955
0.5879;4.1002;9.823;-0.0647;3.2461;9.2572;-0.6322;0.2863;-0.4122;-1.0325;0.0284;0.5455;2.093;-11.86;-2.91;-29.19;56.44;-22.47;0.84;2.0;1002.6;19.334;30.281075;-97.70938;483.6;532.9269256788153;;0.0;51.870968;;0 / 20;536;2018-02-21 20:31:52:966
0.5879;4.1002;9.823;-0.0647;3.2461;9.2572;-0.6322;0.2863;-0.4122;-0.3195;0.0967;0.03;2.093;-11.86;-2.91;-29.19;56.44;-22.47;0.84;2.0;1002.6;19.334;30.281075;-97.70938;483.6;532.9269256788153;;0.0;51.870968;;0 / 20;546;2018-02-21 20:31:52:976
0.5879;4.1002;9.823;-0.0647;3.2461;9.2572;-0.6322;0.2863;-0.4122;-0.3195;0.0967;0.03;2.093;-11.86;-2.91;-29.19;56.44;-22.47;0.84;2.0;1002.6;19.334;30.281075;-97.70938;483.6;532.9269256788153;;0.0;51.870968;;0 / 20;556;2018-02-21 20:31:52:986
0.5879;4.1002;9.823;-0.0647;3.2461;9.2572;-0.6322;0.2863;-0.4122;-0.3195;0.0967;0.03;2.093;-11.86;-2.91;-29.19;56.44;-22.47;0.84;2.0;1002.6;19.334;30.281075;-97.70938;483.6;532.9269256788153;;0.0;51.870968;;0 / 20;566;2018-02-21 20:31:52:996
0.5879;4.1002;9.823;-0.0647;3.2461;9.2572;-0.6322;0.2863;-0.4122;-0.3195;0.0967;0.03;2.093;-11.86;-2.91;-29.19;56.44;-22.47;0.84;2.0;1002.6;19.334;30.281075;-97.70938;483.6;532.9269256788153;;0.0;51.870968;;0 / 20;575;2018-02-21 20:31:53:005
0.5879;4.1002;9.823;-0.0647;3.2461;9.2572;-0.6322;0.2863;-0.4122;-0.3195;0.0967;0.03;2.093;-11.86;-2.91;-29.19;56.44;-22.47;0.84;2.0;1002.6;19.334;30.281075;-97.70938;483.6;532.9269256788153;;0.0;51.870968;;0 / 20;586;2018-02-21 20:31:53:016
0.5879;4.1002;9.823;-0.0647;3.2461;9.2572;-0.6322;0.2863;-0.4122;-0.3195;0.0967;0.03;2.093;-11.86;-2.91;-29.19;56.44;-22.47;0.84;2.0;1002.6;19.334;30.281075;-97.70938;483.6;532.9269256788153;;0.0;51.870968;;0 / 20;596;2018-02-21 20:31:53:026
0.5879;4.1002;9.823;-0.0647;3.2461;9.2572;-0.6322;0.2863;-0.4122;-0.3195;0.0967;0.03;2.093;-11.86;-2.91;-29.19;56.44;-22.47;0.84;2.0;1002.6;19.334;30.281075;-97.70938;483.6;532.9269256788153;;0.0;51.870968;;0 / 20;605;2018-02-21 20:31:53:035
0.5879;4.1002;9.823;-0.0647;3.2461;9.2572;-0.6322;0.2863;-0.4122;-0.3195;0.0967;0.03;2.093;-11.86;-2.91;-29.19;56.44;-22.47;0.84;2.0;1002.6;19.334;30.281075;-97.70938;483.6;532.9269256788153;;0.0;51.870968;;0 / 20;616;2018-02-21 20:31:53:046
0.5879;4.1002;9.823;-0.0647;3.2461;9.2572;-0.6322;0.2863;-0.4122;-0.3195;0.0967;0.03;2.093;-11.86;-2.91;-29.19;56.44;-22.47;0.84;2.0;1002.6;19.334;30.281075;-97.70938;483.6;532.9269256788153;;0.0;51.870968;;0 / 20;626;2018-02-21 20:31:53:056
0.5879;4.1002;9.823;-0.0647;3.2461;9.2572;-0.1192;0.7382;0.1821;-0.3195;0.0967;0.03;2.093;-12.11;-1.76;-29.69;56.73;-19.32;0.4;2.0;1002.6;19.334;30.281075;-97.70938;483.6;532.9269256788153;;0.0;51.870968;;0 / 20;636;2018-02-21 20:31:53:066
0.6909;2.7211;8.828;-0.0647;3.2461;9.2572;-0.1192;0.7382;0.1821;-0.3195;0.0967;0.03;2.093;-12.11;-1.76;-29.69;56.73;-19.32;0.4;2.0;1002.6;19.334;30.281075;-97.70938;483.6;532.9269256788153;;0.0;51.870968;;0 / 20;645;2018-02-21 20:31:53:075
0.6909;2.7211;8.828;0.3821;3.1627;9.2783;-0.1192;0.7382;0.1821;-0.3195;0.0967;0.03;2.093;-12.11;-1.76;-29.69;56.73;-19.32;0.4;2.0;1002.6;19.334;30.281075;-97.70938;483.6;532.9269256788153;;0.0;51.870968;;0 / 20;656;2018-02-21 20:31:53:086
0.6909;2.7211;8.828;0.3821;3.1627;9.2783;-0.1192;0.7382;0.1821;0.1857;-0.6673;0.3657;2.093;-12.11;-1.76;-29.69;56.73;-19.32;0.4;2.0;1002.6;19.334;30.281075;-97.70938;483.6;532.9269256788153;;0.0;51.870968;;0 / 20;665;2018-02-21 20:31:53:095
0.6909;2.7211;8.828;0.3821;3.1627;9.2783;-0.1192;0.7382;0.1821;0.1857;-0.6673;0.3657;2.093;-12.11;-1.76;-29.69;56.73;-19.32;0.4;2.0;1002.6;19.334;30.281075;-97.70938;483.6;532.9269256788153;;0.0;51.870968;;0 / 20;675;2018-02-21 20:31:53:105
0.6909;2.7211;8.828;0.3821;3.1627;9.2783;-0.1192;0.7382;0.1821;0.1857;-0.6673;0.3657;2.093;-12.11;-1.76;-29.69;56.73;-19.32;0.4;2.0;1002.6;19.334;30.281075;-97.70938;483.6;532.9269256788153;;0.0;51.870968;;0 / 20;686;2018-02-21 20:31:53:116
0.6909;2.7211;8.828;0.3821;3.1627;9.2783;-0.1192;0.7382;0.1821;0.1857;-0.6673;0.3657;2.093;-12.11;-1.76;-29.69;56.73;-19.32;0.4;2.0;1002.6;19.334;30.281075;-97.70938;483.6;532.9269256788153;;0.0;51.870968;;0 / 20;695;2018-02-21 20:31:53:125
0.6909;2.7211;8.828;0.3821;3.1627;9.2783;-0.1192;0.7382;0.1821;0.1857;-0.6673;0.3657;2.093;-12.11;-1.76;-29.69;56.73;-19.32;0.4;2.0;1002.6;20.89;30.281075;-97.70938;483.6;532.9269256788153;;0.0;51.870968;;0 / 20;706;2018-02-21 20:31:53:136
0.6909;2.7211;8.828;0.3821;3.1627;9.2783;-0.1192;0.7382;0.1821;0.1857;-0.6673;0.3657;2.093;-12.11;-1.76;-29.69;56.73;-19.32;0.4;2.0;1002.6;20.89;30.281075;-97.70938;483.6;532.9269256788153;;0.0;51.870968;;0 / 20;716;2018-02-21 20:31:53:146
0.6909;2.7211;8.828;0.3821;3.1627;9.2783;-0.1192;0.7382;0.1821;0.1857;-0.6673;0.3657;2.093;-12.11;-1.76;-29.69;56.73;-19.32;0.4;2.0;1002.6;20.89;30.281075;-97.70938;483.6;532.9269256788153;;0.0;51.870968;;0 / 20;726;2018-02-21 20:31:53:156
0.6909;2.7211;8.828;0.3821;3.1627;9.2783;-0.1192;0.7382;0.1821;0.1857;-0.6673;0.3657;2.093;-12.11;-1.76;-29.69;56.73;-19.32;0.4;2.0;1002.6;20.89;30.281075;-97.70938;483.6;532.9269256788153;;0.0;51.870968;;0 / 20;735;2018-02-21 20:31:53:165
0.6909;2.7211;8.828;0.3821;3.1627;9.2783;-0.1192;0.7382;0.1821;0.1857;-0.6673;0.3657;2.093;-15.16;-2.01;-25.89;64.36;-18.81;-2.36;2.0;1002.6;20.89;30.281075;-97.70938;483.6;532.9269256788153;;0.0;51.870968;;0 / 20;746;2018-02-21 20:31:53:176
0.6909;2.7211;8.828;0.3821;3.1627;9.2783;1.6001;1.2935;0.6312;0.1857;-0.6673;0.3657;2.093;-15.16;-2.01;-25.89;64.36;-18.81;-2.36;2.0;1002.6;20.89;30.281075;-97.70938;483.6;532.9269256788153;;0.0;51.870968;;0 / 20;756;2018-02-21 20:31:53:186
0.6909;2.7211;8.828;0.3821;3.1627;9.2783;1.6001;1.2935;0.6312;0.1857;-0.6673;0.3657;2.093;-15.16;-2.01;-25.89;64.36;-18.81;-2.36;2.0;1002.6;20.89;30.281075;-97.70938;483.6;532.9269256788153;;0.0;51.870968;;0 / 20;765;2018-02-21 20:31:53:195
0.6909;2.7211;8.828;0.3821;3.1627;9.2783;1.6001;1.2935;0.6312;0.1857;-0.6673;0.3657;2.093;-15.16;-2.01;-25.89;64.36;-18.81;-2.36;2.0;1002.62;20.89;30.281075;-97.70938;483.6;532.9269256788153;;0.0;51.870968;;0 / 20;776;2018-02-21 20:31:53:206
-0.0924;1.8314;9.2461;2.6347;4.8605;8.1037;1.6001;1.2935;0.6312;0.1857;-0.6673;0.3657;2.093;-15.16;-2.01;-25.89;64.36;-18.81;-2.36;2.0;1002.62;20.89;30.281075;-97.70938;483.6;532.9269256788153;;0.0;51.870968;;0 / 20;786;2018-02-21 20:31:53:216
-0.0924;1.8314;9.2461;2.6347;4.8605;8.1037;1.6001;1.2935;0.6312;3.1226;-2.1646;1.8561;2.093;-15.16;-2.01;-25.89;64.36;-18.81;-2.36;2.0;1002.62;20.89;30.281075;-97.70938;483.6;532.9269256788153;;0.0;51.870968;;0 / 20;796;2018-02-21 20:31:53:226
-0.0924;1.8314;9.2461;2.6347;4.8605;8.1037;1.6001;1.2935;0.6312;3.1226;-2.1646;1.8561;2.093;-15.16;-2.01;-25.89;64.36;-18.81;-2.36;2.0;1002.62;20.89;30.281075;-97.70938;483.6;532.9269256788153;;0.0;51.870968;;0 / 20;806;2018-02-21 20:31:53:236
-0.0924;1.8314;9.2461;2.6347;4.8605;8.1037;1.6001;1.2935;0.6312;3.1226;-2.1646;1.8561;2.093;-15.16;-2.01;-25.89;64.36;-18.81;-2.36;2.0;1002.62;20.89;30.281075;-97.70938;483.6;532.9269256788153;;0.0;51.870968;;0 / 20;815;2018-02-21 20:31:53:245
-0.0924;1.8314;9.2461;2.6347;4.8605;8.1037;1.6001;1.2935;0.6312;3.1226;-2.1646;1.8561;2.093;-15.16;-2.01;-25.89;64.36;-18.81;-2.36;2.0;1002.62;20.89;30.281075;-97.70938;483.6;532.9269256788153;;0.0;51.870968;;0 / 20;826;2018-02-21 20:31:53:256
-0.0924;1.8314;9.2461;2.6347;4.8605;8.1037;1.6001;1.2935;0.6312;3.1226;-2.1646;1.8561;2.093;-15.16;-2.01;-25.89;64.36;-18.81;-2.36;2.0;1002.62;20.89;30.281075;-97.70938;483.6;532.9269256788153;;0.0;51.870968;;0 / 20;836;2018-02-21 20:31:53:266
-0.0924;1.8314;9.2461;2.6347;4.8605;8.1037;1.6001;1.2935;0.6312;3.1226;-2.1646;1.8561;2.093;-15.16;-2.01;-25.89;64.36;-18.81;-2.36;2.0;1002.62;20.89;30.281075;-97.70938;483.6;532.9269256788153;;0.0;51.870968;;0 / 20;845;2018-02-21 20:31:53:275
-0.0924;1.8314;9.2461;2.6347;4.8605;8.1037;1.6001;1.2935;0.6312;3.1226;-2.1646;1.8561;2.093;-25.11;-2.21;-11.04;70.35;-29.7;-18.01;2.0;1002.62;20.89;30.281075;-97.70938;483.6;532.9269256788153;;0.0;51.870968;;0 / 20;855;2018-02-21 20:31:53:285
-0.0924;1.8314;9.2461;2.6347;4.8605;8.1037;1.6001;1.2935;0.6312;3.1226;-2.1646;1.8561;2.093;-25.11;-2.21;-11.04;70.35;-29.7;-18.01;2.0;1002.62;20.89;30.281075;-97.70938;483.6;532.9269256788153;;0.0;51.870968;;0 / 20;866;2018-02-21 20:31:53:296
-0.0924;1.8314;9.2461;2.6347;4.8605;8.1037;-0.5163;2.6675;-0.9195;3.1226;-2.1646;1.8561;2.093;-25.11;-2.21;-11.04;70.35;-29.7;-18.01;2.0;1002.62;20.89;30.281075;-97.70938;483.6;532.9269256788153;;0.0;51.870968;;0 / 20;876;2018-02-21 20:31:53:306
-0.0924;1.8314;9.2461;2.6347;4.8605;8.1037;-0.5163;2.6675;-0.9195;3.1226;-2.1646;1.8561;2.093;-25.11;-2.21;-11.04;70.35;-29.7;-18.01;2.0;1002.62;20.89;30.281075;-97.70938;483.6;532.9269256788153;;0.0;51.870968;;0 / 20;886;2018-02-21 20:31:53:316
-0.0924;1.8314;9.2461;2.6347;4.8605;8.1037;-0.5163;2.6675;-0.9195;3.1226;-2.1646;1.8561;2.093;-25.11;-2.21;-11.04;70.35;-29.7;-18.01;2.0;1002.62;20.89;30.281075;-97.70938;483.6;532.9269256788153;;0.0;51.870968;;0 / 20;895;2018-02-21 20:31:53:325
-0.0924;1.8314;9.2461;5.8675;5.3326;5.7768;-0.5163;2.6675;-0.9195;3.1226;-2.1646;1.8561;2.791;-25.11;-2.21;-11.04;70.35;-29.7;-18.01;2.0;1002.62;20.89;30.281075;-97.70938;483.6;532.9269256788153;;0.0;51.870968;;0 / 20;906;2018-02-21 20:31:53:336
-0.0924;1.8314;9.2461;5.8675;5.3326;5.7768;-0.5163;2.6675;-0.9195;1.4084;0.6581;4.1707;2.791;-25.11;-2.21;-11.04;70.35;-29.7;-18.01;2.0;1002.62;20.89;30.281075;-97.70938;483.6;532.9269256788153;;0.0;51.870968;;0 / 20;915;2018-02-21 20:31:53:345
5.4661;3.2687;6.7724;5.8675;5.3326;5.7768;-0.5163;2.6675;-0.9195;1.4084;0.6581;4.1707;2.791;-25.11;-2.21;-11.04;70.35;-29.7;-18.01;2.0;1002.62;20.89;30.281075;-97.70938;483.6;532.9269256788153;;0.0;51.870968;;0 / 20;926;2018-02-21 20:31:53:356
5.4661;3.2687;6.7724;5.8675;5.3326;5.7768;-0.5163;2.6675;-0.9195;1.4084;0.6581;4.1707;2.791;-25.11;-2.21;-11.04;70.35;-29.7;-18.01;2.0;1002.62;20.89;30.281075;-97.70938;483.6;532.9269256788153;;0.0;51.870968;;0 / 20;936;2018-02-21 20:31:53:366
5.4661;3.2687;6.7724;5.8675;5.3326;5.7768;-0.5163;2.6675;-0.9195;1.4084;0.6581;4.1707;2.791;-25.11;-2.21;-11.04;70.35;-29.7;-18.01;2.0;1002.62;20.89;30.281075;-97.70938;483.6;532.9269256788153;;0.0;51.870968;;0 / 20;946;2018-02-21 20:31:53:376
5.4661;3.2687;6.7724;5.8675;5.3326;5.7768;-0.5163;2.6675;-0.9195;1.4084;0.6581;4.1707;2.791;-25.11;-2.21;-11.04;70.35;-29.7;-18.01;2.0;1002.62;20.89;30.281075;-97.70938;483.6;532.9269256788153;;0.0;51.870968;;0 / 20;955;2018-02-21 20:31:53:385
5.4661;3.2687;6.7724;5.8675;5.3326;5.7768;-0.5163;2.6675;-0.9195;1.4084;0.6581;4.1707;2.791;-25.11;-2.21;-11.04;70.35;-29.7;-18.01;2.0;1002.62;20.89;30.281075;-97.70938;483.6;532.9269256788153;;0.0;51.870968;;0 / 20;966;2018-02-21 20:31:53:396
5.4661;3.2687;6.7724;5.8675;5.3326;5.7768;-0.5163;2.6675;-0.9195;1.4084;0.6581;4.1707;2.791;-31.16;13.54;-9.69;27.94;-32.93;-45.45;2.0;1002.61;20.89;30.281075;-97.70938;483.6;532.9269256788153;;0.0;51.870968;;0 / 20;975;2018-02-21 20:31:53:405
5.4661;3.2687;6.7724;5.8675;5.3326;5.7768;-2.3163;0.1261;2.1495;1.4084;0.6581;4.1707;2.791;-31.16;13.54;-9.69;27.94;-32.93;-45.45;2.0;1002.61;20.89;30.281075;-97.70938;483.6;532.9269256788153;;0.0;51.870968;;10 / 20;986;2018-02-21 20:31:53:416
5.4661;3.2687;6.7724;5.8675;5.3326;5.7768;-2.3163;0.1261;2.1495;1.4084;0.6581;4.1707;2.791;-31.16;13.54;-9.69;27.94;-32.93;-45.45;2.0;1002.61;20.89;30.281075;-97.70938;483.6;532.9269256788153;;0.0;51.870968;;10 / 20;995;2018-02-21 20:31:53:425
5.4661;3.2687;6.7724;5.8675;5.3326;5.7768;-2.3163;0.1261;2.1495;1.4084;0.6581;4.1707;2.791;-31.16;13.54;-9.69;27.94;-32.93;-45.45;2.0;1002.61;20.89;30.281075;-97.70938;483.6;532.9269256788153;;0.0;51.870968;;10 / 20;1006;2018-02-21 20:31:53:436
5.4661;3.2687;6.7724;5.8675;5.3326;5.7768;-2.3163;0.1261;2.1495;1.4084;0.6581;4.1707;2.791;-31.16;13.54;-9.69;27.94;-32.93;-45.45;2.0;1002.61;20.89;30.281075;-97.70938;483.6;532.9269256788153;;0.0;51.870968;;10 / 20;1017;2018-02-21 20:31:53:447
5.4661;3.2687;6.7724;5.8675;5.3326;5.7768;-2.3163;0.1261;2.1495;1.4084;0.6581;4.1707;2.791;-31.16;13.54;-9.69;27.94;-32.93;-45.45;2.0;1002.61;20.89;30.281075;-97.70938;483.6;532.9269256788153;;0.0;51.870968;;10 / 20;1026;2018-02-21 20:31:53:456
5.4661;3.2687;6.7724;6.5155;4.1833;6.0236;-2.3163;0.1261;2.1495;1.4084;0.6581;4.1707;2.791;-31.16;13.54;-9.69;27.94;-32.93;-45.45;2.0;1002.61;28.137;30.281075;-97.70938;483.6;532.9269256788153;;0.0;51.870968;;10 / 20;1035;2018-02-21 20:31:53:465
5.4661;3.2687;6.7724;6.5155;4.1833;6.0236;-2.3163;0.1261;2.1495;1.0856;-0.8213;1.0771;2.791;-31.16;13.54;-9.69;27.94;-32.93;-45.45;2.0;1002.61;28.137;30.281075;-97.70938;483.6;532.9269256788153;;0.0;51.870968;;10 / 20;1046;2018-02-21 20:31:53:476
6.483;1.1805;5.0822;6.5155;4.1833;6.0236;-2.3163;0.1261;2.1495;1.0856;-0.8213;1.0771;2.791;-31.16;13.54;-9.69;27.94;-32.93;-45.45;2.0;1002.61;28.137;30.281075;-97.70938;483.6;532.9269256788153;;0.0;51.870968;;10 / 20;1056;2018-02-21 20:31:53:486
6.483;1.1805;5.0822;6.5155;4.1833;6.0236;-2.3163;0.1261;2.1495;1.0856;-0.8213;1.0771;2.791;-31.16;13.54;-9.69;27.94;-32.93;-45.45;2.0;1002.61;28.137;30.281075;-97.70938;483.6;532.9269256788153;;0.0;51.870968;;10 / 20;1065;2018-02-21 20:31:53:495
6.483;1.1805;5.0822;6.5155;4.1833;6.0236;-2.3163;0.1261;2.1495;1.0856;-0.8213;1.0771;2.791;-31.16;13.54;-9.69;27.94;-32.93;-45.45;2.0;1002.61;28.137;30.281075;-97.70938;483.6;532.9269256788153;;0.0;51.870968;;10 / 20;1076;2018-02-21 20:31:53:506
6.483;1.1805;5.0822;6.5155;4.1833;6.0236;-2.3163;0.1261;2.1495;1.0856;-0.8213;1.0771;2.791;-30.66;19.64;-9.59;24.06;-25.24;-47.25;2.0;1002.61;28.137;30.281075;-97.70938;483.6;532.9269256788153;;0.0;51.870968;;10 / 20;1086;2018-02-21 20:31:53:516
6.483;1.1805;5.0822;6.5155;4.1833;6.0236;-4.3566;-1.4715;-0.9174;1.0856;-0.8213;1.0771;2.791;-30.66;19.64;-9.59;24.06;-25.24;-47.25;2.0;1002.61;28.137;30.281075;-97.70938;483.6;532.9269256788153;;0.0;51.870968;;10 / 20;1096;2018-02-21 20:31:53:526
6.483;1.1805;5.0822;6.5155;4.1833;6.0236;-4.3566;-1.4715;-0.9174;1.0856;-0.8213;1.0771;2.791;-30.66;19.64;-9.59;24.06;-25.24;-47.25;2.0;1002.61;28.137;30.281075;-97.70938;483.6;532.9269256788153;;0.0;51.870968;;10 / 20;1106;2018-02-21 20:31:53:536
6.483;1.1805;5.0822;6.5155;4.1833;6.0236;-4.3566;-1.4715;-0.9174;1.0856;-0.8213;1.0771;2.791;-30.66;19.64;-9.59;24.06;-25.24;-47.25;2.0;1002.61;28.137;30.281075;-97.70938;483.6;532.9269256788153;;0.0;51.870968;;10 / 20;1115;2018-02-21 20:31:53:545
6.483;1.1805;5.0822;6.5155;4.1833;6.0236;-4.3566;-1.4715;-0.9174;1.0856;-0.8213;1.0771;2.791;-30.66;19.64;-9.59;24.06;-25.24;-47.25;2.0;1002.61;28.137;30.281075;-97.70938;483.6;532.9269256788153;;0.0;51.870968;;10 / 20;1126;2018-02-21 20:31:53:556
6.483;1.1805;5.0822;6.5155;4.1833;6.0236;-4.3566;-1.4715;-0.9174;1.0856;-0.8213;1.0771;2.791;-30.66;19.64;-9.59;24.06;-25.24;-47.25;2.0;1002.61;28.137;30.281075;-97.70938;483.6;532.9269256788153;;0.0;51.870968;;10 / 20;1135;2018-02-21 20:31:53:565
6.483;1.1805;5.0822;6.5155;4.1833;6.0236;-4.3566;-1.4715;-0.9174;1.0856;-0.8213;1.0771;2.791;-30.66;19.64;-9.59;24.06;-25.24;-47.25;2.0;1002.61;28.137;30.281075;-97.70938;483.6;532.9269256788153;;0.0;51.870968;;10 / 20;1146;2018-02-21 20:31:53:576
6.483;1.1805;5.0822;6.9578;2.7386;6.3503;-4.3566;-1.4715;-0.9174;1.0856;-0.8213;1.0771;2.791;-30.66;19.64;-9.59;24.06;-25.24;-47.25;2.0;1002.61;28.137;30.281075;-97.70938;483.6;532.9269256788153;;0.0;51.870968;;10 / 20;1156;2018-02-21 20:31:53:586
6.483;1.1805;5.0822;6.9578;2.7386;6.3503;-4.3566;-1.4715;-0.9174;-0.5513;0.7473;-0.168;2.791;-30.66;19.64;-9.59;24.06;-25.24;-47.25;2.0;1002.61;28.137;30.281075;-97.70938;483.6;532.9269256788153;;0.0;51.870968;;10 / 20;1166;2018-02-21 20:31:53:596
6.483;1.1805;5.0822;6.9578;2.7386;6.3503;-4.3566;-1.4715;-0.9174;-0.5513;0.7473;-0.168;2.791;-30.66;19.64;-9.59;24.06;-25.24;-47.25;2.0;1002.61;28.137;30.281075;-97.70938;483.6;532.9269256788153;;0.0;51.870968;;10 / 20;1175;2018-02-21 20:31:53:605
6.483;1.1805;5.0822;6.9578;2.7386;6.3503;-4.3566;-1.4715;-0.9174;-0.5513;0.7473;-0.168;2.791;-30.66;19.64;-9.59;24.06;-25.24;-47.25;2.0;1002.61;28.137;30.281075;-97.70938;483.6;532.9269256788153;;0.0;51.870968;;10 / 20;1186;2018-02-21 20:31:53:616
8.1358;3.2449;6.0843;6.9578;2.7386;6.3503;-4.3566;-1.4715;-0.9174;-0.5513;0.7473;-0.168;2.791;-30.66;19.64;-9.59;24.06;-25.24;-47.25;2.0;1002.61;28.137;30.281075;-97.70938;483.6;532.9269256788153;;0.0;51.870968;;10 / 20;1196;2018-02-21 20:31:53:626
8.1358;3.2449;6.0843;6.9578;2.7386;6.3503;-4.3566;-1.4715;-0.9174;-0.5513;0.7473;-0.168;2.791;-29.81;24.09;-11.59;19.84;-16.21;-47.61;2.0;1002.61;28.137;30.281075;-97.70938;483.6;532.9269256788153;;0.0;51.870968;;10 / 20;1206;2018-02-21 20:31:53:636
8.1358;3.2449;6.0843;6.9578;2.7386;6.3503;1.1915;-2.712;-2.1211;-0.5513;0.7473;-0.168;2.791;-29.81;24.09;-11.59;19.84;-16.21;-47.61;2.0;1002.61;28.137;30.281075;-97.70938;483.6;532.9269256788153;;0.0;51.870968;;10 / 20;1216;2018-02-21 20:31:53:646
8.1358;3.2449;6.0843;6.9578;2.7386;6.3503;1.1915;-2.712;-2.1211;-0.5513;0.7473;-0.168;2.791;-29.81;24.09;-11.59;19.84;-16.21;-47.61;2.0;1002.61;28.137;30.281075;-97.70938;483.6;532.9269256788153;;0.0;51.870968;;10 / 20;1226;2018-02-21 20:31:53:656
8.1358;3.2449;6.0843;6.9578;2.7386;6.3503;1.1915;-2.712;-2.1211;-0.5513;0.7473;-0.168;2.791;-29.81;24.09;-11.59;19.84;-16.21;-47.61;2.0;1002.61;28.137;30.281075;-97.70938;483.6;532.9269256788153;;0.0;51.870968;;10 / 20;1236;2018-02-21 20:31:53:666
8.1358;3.2449;6.0843;6.9578;2.7386;6.3503;1.1915;-2.712;-2.1211;-0.5513;0.7473;-0.168;2.791;-29.81;24.09;-11.59;19.84;-16.21;-47.61;2.0;1002.61;28.137;30.281075;-97.70938;483.6;532.9269256788153;;0.0;51.870968;;10 / 20;1246;2018-02-21 20:31:53:676
8.1358;3.2449;6.0843;6.9578;2.7386;6.3503;1.1915;-2.712;-2.1211;-0.5513;0.7473;-0.168;2.791;-29.81;24.09;-11.59;19.84;-16.21;-47.61;2.0;1002.61;28.137;30.281075;-97.70938;483.6;532.9269256788153;;0.0;51.870968;;10 / 20;1256;2018-02-21 20:31:53:686
8.1358;3.2449;6.0843;6.9578;2.7386;6.3503;1.1915;-2.712;-2.1211;-0.5513;0.7473;-0.168;2.791;-29.81;24.09;-11.59;19.84;-16.21;-47.61;2.0;1002.61;28.137;30.281075;-97.70938;483.6;532.9269256788153;;0.0;51.870968;;10 / 20;1266;2018-02-21 20:31:53:696
8.1358;3.2449;6.0843;6.9578;2.7386;6.3503;1.1915;-2.712;-2.1211;-0.5513;0.7473;-0.168;2.791;-29.81;24.09;-11.59;19.84;-16.21;-47.61;2.0;1002.61;28.137;30.281075;-97.70938;483.6;532.9269256788153;;0.0;51.870968;;10 / 20;1275;2018-02-21 20:31:53:705
8.1358;3.2449;6.0843;5.941;4.916;6.0642;1.1915;-2.712;-2.1211;-0.5513;0.7473;-0.168;2.791;-29.81;24.09;-11.59;19.84;-16.21;-47.61;2.0;1002.61;28.137;30.281075;-97.70938;483.6;532.9269256788153;;0.0;51.870968;;10 / 20;1286;2018-02-21 20:31:53:716
8.1358;3.2449;6.0843;5.941;4.916;6.0642;1.1915;-2.712;-2.1211;-0.7558;-0.8371;-2.8913;2.791;-29.81;24.09;-11.59;19.84;-16.21;-47.61;2.0;1002.61;28.137;30.281075;-97.70938;483.6;532.9269256788153;;0.0;51.870968;;10 / 20;1296;2018-02-21 20:31:53:726
8.1358;3.2449;6.0843;5.941;4.916;6.0642;1.1915;-2.712;-2.1211;-0.7558;-0.8371;-2.8913;2.791;-29.81;24.09;-11.59;19.84;-16.21;-47.61;2.0;1002.61;28.137;30.281075;-97.70938;483.6;532.9269256788153;;0.0;51.870968;;10 / 20;1306;2018-02-21 20:31:53:736
8.1358;3.2449;6.0843;5.941;4.916;6.0642;1.1915;-2.712;-2.1211;-0.7558;-0.8371;-2.8913;2.791;-29.81;24.09;-11.59;19.84;-16.21;-47.61;2.0;1002.61;28.137;30.281075;-97.70938;483.6;532.9269256788153;;0.0;51.870968;;10 / 20;1315;2018-02-21 20:31:53:745
-0.8134;5.6218;1.1655;5.941;4.916;6.0642;8.5945;-3.2326;5.5526;-0.7558;-0.8371;-2.8913;2.791;-31.16;10.04;-9.59;33.25;-30.07;-44.41;2.0;1002.61;28.137;30.281075;-97.70938;483.6;532.9269256788153;;0.0;51.870968;;10 / 20;1326;2018-02-21 20:31:53:756
-0.8134;5.6218;1.1655;5.941;4.916;6.0642;8.5945;-3.2326;5.5526;-0.7558;-0.8371;-2.8913;2.791;-31.16;10.04;-9.59;33.25;-30.07;-44.41;2.0;1002.61;28.137;30.281075;-97.70938;483.6;532.9269256788153;;0.0;51.870968;;10 / 20;1335;2018-02-21 20:31:53:765
-0.8134;5.6218;1.1655;5.941;4.916;6.0642;8.5945;-3.2326;5.5526;-0.7558;-0.8371;-2.8913;2.791;-31.16;10.04;-9.59;33.25;-30.07;-44.41;2.0;1002.61;28.137;30.281075;-97.70938;483.6;532.9269256788153;;0.0;51.870968;;10 / 20;1346;2018-02-21 20:31:53:776
-0.8134;5.6218;1.1655;5.941;4.916;6.0642;8.5945;-3.2326;5.5526;-0.7558;-0.8371;-2.8913;2.791;-31.16;10.04;-9.59;33.25;-30.07;-44.41;2.0;1002.61;28.137;30.281075;-97.70938;483.6;532.9269256788153;;0.0;51.870968;;10 / 20;1355;2018-02-21 20:31:53:785
-0.8134;5.6218;1.1655;5.941;4.916;6.0642;8.5945;-3.2326;5.5526;-0.7558;-0.8371;-2.8913;2.791;-31.16;10.04;-9.59;33.25;-30.07;-44.41;2.0;1002.61;44.511;30.281075;-97.70938;483.6;532.9269256788153;;0.0;51.870968;;10 / 20;1366;2018-02-21 20:31:53:796
-0.8134;5.6218;1.1655;5.941;4.916;6.0642;8.5945;-3.2326;5.5526;-0.7558;-0.8371;-2.8913;2.791;-31.16;10.04;-9.59;33.25;-30.07;-44.41;2.0;1002.59;44.511;30.281075;-97.70938;483.6;532.9269256788153;;0.0;51.870968;;10 / 20;1377;2018-02-21 20:31:53:807
-0.8134;5.6218;1.1655;5.941;4.916;6.0642;8.5945;-3.2326;5.5526;-0.7558;-0.8371;-2.8913;2.791;-31.16;10.04;-9.59;33.25;-30.07;-44.41;2.0;1002.59;44.511;30.281075;-97.70938;483.6;532.9269256788153;;0.0;51.870968;;10 / 20;1386;2018-02-21 20:31:53:816
-0.8134;5.6218;1.1655;5.941;4.916;6.0642;8.5945;-3.2326;5.5526;-0.7558;-0.8371;-2.8913;2.791;-31.16;10.04;-9.59;33.25;-30.07;-44.41;2.0;1002.59;44.511;30.281075;-97.70938;483.6;532.9269256788153;;0.0;51.870968;;10 / 20;1395;2018-02-21 20:31:53:825
-0.8134;5.6218;1.1655;3.7254;8.192;3.9048;8.5945;-3.2326;5.5526;-0.7558;-0.8371;-2.8913;2.791;-31.16;10.04;-9.59;33.25;-30.07;-44.41;2.0;1002.59;44.511;30.281075;-97.70938;483.6;532.9269256788153;;0.0;51.870968;;10 / 20;1406;2018-02-21 20:31:53:836
-0.8134;5.6218;1.1655;3.7254;8.192;3.9048;8.5945;-3.2326;5.5526;1.3353;-0.4016;-3.049;2.791;-31.16;10.04;-9.59;33.25;-30.07;-44.41;2.0;1002.59;44.511;30.281075;-97.70938;483.6;532.9269256788153;;0.0;51.870968;;10 / 20;1416;2018-02-21 20:31:53:846
-0.8134;5.6218;1.1655;3.7254;8.192;3.9048;8.5945;-3.2326;5.5526;1.3353;-0.4016;-3.049;2.791;-31.16;10.04;-9.59;33.25;-30.07;-44.41;2.0;1002.59;44.511;30.281075;-97.70938;483.6;532.9269256788153;;0.0;51.870968;;10 / 20;1425;2018-02-21 20:31:53:855
-0.8134;5.6218;1.1655;3.7254;8.192;3.9048;8.5945;-3.2326;5.5526;1.3353;-0.4016;-3.049;2.791;-25.26;-6.66;0.66;62.07;-56.62;-43.65;2.0;1002.59;44.511;30.281075;-97.70938;483.6;532.9269256788153;;0.0;51.870968;;10 / 20;1436;2018-02-21 20:31:53:866
-0.8134;5.6218;1.1655;3.7254;8.192;3.9048;-14.6755;7.582;-12.1825;1.3353;-0.4016;-3.049;2.791;-25.26;-6.66;0.66;62.07;-56.62;-43.65;2.0;1002.59;44.511;30.281075;-97.70938;483.6;532.9269256788153;;0.0;51.870968;;10 / 20;1445;2018-02-21 20:31:53:875
-0.8134;5.6218;1.1655;3.7254;8.192;3.9048;-14.6755;7.582;-12.1825;1.3353;-0.4016;-3.049;2.791;-25.26;-6.66;0.66;62.07;-56.62;-43.65;2.0;1002.59;44.511;30.281075;-97.70938;483.6;532.9269256788153;;0.0;51.870968;;10 / 20;1456;2018-02-21 20:31:53:886
7.8064;6.9391;10.572;3.7254;8.192;3.9048;-14.6755;7.582;-12.1825;1.3353;-0.4016;-3.049;2.791;-25.26;-6.66;0.66;62.07;-56.62;-43.65;2.0;1002.59;44.511;30.281075;-97.70938;483.6;532.9269256788153;;0.0;51.870968;;10 / 20;1466;2018-02-21 20:31:53:896
7.8064;6.9391;10.572;3.7254;8.192;3.9048;-14.6755;7.582;-12.1825;1.3353;-0.4016;-3.049;2.791;-25.26;-6.66;0.66;62.07;-56.62;-43.65;2.0;1002.59;44.511;30.281075;-97.70938;483.6;532.9269256788153;;0.0;51.870968;;10 / 20;1476;2018-02-21 20:31:53:906
7.8064;6.9391;10.572;3.7254;8.192;3.9048;-14.6755;7.582;-12.1825;1.3353;-0.4016;-3.049;2.791;-25.26;-6.66;0.66;62.07;-56.62;-43.65;2.0;1002.59;44.511;30.281075;-97.70938;483.6;532.9269256788153;;0.0;51.870968;;10 / 20;1486;2018-02-21 20:31:53:916
7.8064;6.9391;10.572;3.7254;8.192;3.9048;-14.6755;7.582;-12.1825;1.3353;-0.4016;-3.049;2.791;-25.26;-6.66;0.66;62.07;-56.62;-43.65;2.0;1002.59;44.511;30.281075;-97.70938;483.6;532.9269256788153;;0.0;51.870968;;10 / 20;1495;2018-02-21 20:31:53:925
7.8064;6.9391;10.572;3.7254;8.192;3.9048;-14.6755;7.582;-12.1825;1.3353;-0.4016;-3.049;2.791;-25.26;-6.66;0.66;62.07;-56.62;-43.65;2.0;1002.59;44.511;30.281075;-97.70938;483.6;532.9269256788153;;0.0;51.870968;;10 / 20;1506;2018-02-21 20:31:53:936
7.8064;6.9391;10.572;3.7254;8.192;3.9048;-14.6755;7.582;-12.1825;1.3353;-0.4016;-3.049;2.791;-25.26;-6.66;0.66;62.07;-56.62;-43.65;2.0;1002.59;44.511;30.281075;-97.70938;483.6;532.9269256788153;;0.0;51.870968;;10 / 20;1515;2018-02-21 20:31:53:945
7.8064;6.9391;10.572;3.7254;8.192;3.9048;-14.6755;7.582;-12.1825;1.3353;-0.4016;-3.049;2.791;-25.26;-6.66;0.66;62.07;-56.62;-43.65;2.0;1002.59;44.511;30.281075;-97.70938;483.6;532.9269256788153;;0.0;51.870968;;10 / 20;1526;2018-02-21 20:31:53:956
7.8064;6.9391;10.572;2.6734;8.6712;3.7283;-14.6755;7.582;-12.1825;1.3353;-0.4016;-3.049;2.791;-25.26;-6.66;0.66;62.07;-56.62;-43.65;2.0;1002.59;44.511;30.281075;-97.70938;483.6;532.9269256788153;;0.0;51.870968;;10 / 20;1536;2018-02-21 20:31:53:966
7.8064;6.9391;10.572;2.6734;8.6712;3.7283;-14.6755;7.582;-12.1825;1.3024;2.9441;2.3017;2.791;-25.26;-6.66;0.66;62.07;-56.62;-43.65;2.0;1002.59;44.511;30.281075;-97.70938;483.6;532.9269256788153;;0.0;51.870968;;10 / 20;1546;2018-02-21 20:31:53:976
7.8064;6.9391;10.572;2.6734;8.6712;3.7283;-14.6755;7.582;-12.1825;1.3024;2.9441;2.3017;2.791;-23.16;-7.06;-6.74;47.05;-62.12;-35.64;2.0;1002.59;44.511;30.281075;-97.70938;483.6;532.9269256788153;;0.0;51.870968;;10 / 20;1555;2018-02-21 20:31:53:985
7.8064;6.9391;10.572;2.6734;8.6712;3.7283;-3.4257;-4.3162;6.7372;1.3024;2.9441;2.3017;2.791;-23.16;-7.06;-6.74;47.05;-62.12;-35.64;2.0;1002.59;44.511;30.281075;-97.70938;483.6;532.9269256788153;;0.0;51.870968;;10 / 20;1566;2018-02-21 20:31:53:996
7.8064;6.9391;10.572;2.6734;8.6712;3.7283;-3.4257;-4.3162;6.7372;1.3024;2.9441;2.3017;2.791;-23.16;-7.06;-6.74;47.05;-62.12;-35.64;2.0;1002.63;44.511;30.281075;-97.70938;483.6;532.9269256788153;;0.0;51.870968;;10 / 20;1576;2018-02-21 20:31:54:006
7.8064;6.9391;10.572;2.6734;8.6712;3.7283;-3.4257;-4.3162;6.7372;1.3024;2.9441;2.3017;2.791;-23.16;-7.06;-6.74;47.05;-62.12;-35.64;2.0;1002.63;44.511;30.281075;-97.70938;483.6;532.9269256788153;;0.0;51.870968;;10 / 20;1585;2018-02-21 20:31:54:015
7.8064;6.9391;10.572;2.6734;8.6712;3.7283;-3.4257;-4.3162;6.7372;1.3024;2.9441;2.3017;2.791;-23.16;-7.06;-6.74;47.05;-62.12;-35.64;2.0;1002.63;44.511;30.281075;-97.70938;483.6;532.9269256788153;;0.0;51.870968;;10 / 20;1595;2018-02-21 20:31:54:025
8.2256;8.8468;3.6763;2.6734;8.6712;3.7283;-3.4257;-4.3162;6.7372;1.3024;2.9441;2.3017;2.791;-23.16;-7.06;-6.74;47.05;-62.12;-35.64;2.0;1002.63;44.511;30.281075;-97.70938;483.6;532.9269256788153;;0.0;51.870968;;10 / 20;1606;2018-02-21 20:31:54:036
8.2256;8.8468;3.6763;2.6734;8.6712;3.7283;-3.4257;-4.3162;6.7372;1.3024;2.9441;2.3017;2.791;-23.16;-7.06;-6.74;47.05;-62.12;-35.64;2.0;1002.63;44.511;30.281075;-97.70938;483.6;532.9269256788153;;0.0;51.870968;;10 / 20;1616;2018-02-21 20:31:54:046
8.2256;8.8468;3.6763;2.6734;8.6712;3.7283;-3.4257;-4.3162;6.7372;1.3024;2.9441;2.3017;0.562;-23.16;-7.06;-6.74;47.05;-62.12;-35.64;0.0;1002.63;44.511;30.281075;-97.70938;483.6;532.9269256788153;;0.0;51.870968;;10 / 20;1626;2018-02-21 20:31:54:056
8.2256;8.8468;3.6763;2.6734;8.6712;3.7283;-3.4257;-4.3162;6.7372;1.3024;2.9441;2.3017;0.562;-23.16;-7.06;-6.74;47.05;-62.12;-35.64;0.0;1002.63;44.511;30.281075;-97.70938;483.6;532.9269256788153;;0.0;51.870968;;10 / 20;1636;2018-02-21 20:31:54:066
8.2256;8.8468;3.6763;2.6734;8.6712;3.7283;-3.4257;-4.3162;6.7372;1.3024;2.9441;2.3017;0.562;-23.16;-7.06;-6.74;47.05;-62.12;-35.64;0.0;1002.63;44.511;30.281075;-97.70938;483.6;532.9269256788153;;0.0;51.870968;;10 / 20;1646;2018-02-21 20:31:54:076
8.2256;8.8468;3.6763;4.2729;8.6892;1.5735;-3.4257;-4.3162;6.7372;1.3024;2.9441;2.3017;0.562;-23.16;-7.06;-6.74;47.05;-62.12;-35.64;0.0;1002.63;44.511;30.281075;-97.70938;483.6;532.9269256788153;;0.0;51.870968;;10 / 20;1655;2018-02-21 20:31:54:085
8.2256;8.8468;3.6763;4.2729;8.6892;1.5735;-3.4257;-4.3162;6.7372;-1.2396;-3.8763;-0.1085;0.562;-25.96;-4.66;4.26;35.19;-62.34;-69.78;0.0;1002.63;44.511;30.281075;-97.70938;483.6;532.9269256788153;;0.0;51.870968;;10 / 20;1666;2018-02-21 20:31:54:096
8.2256;8.8468;3.6763;4.2729;8.6892;1.5735;-4.1899;-7.5913;-1.8725;-1.2396;-3.8763;-0.1085;0.562;-25.96;-4.66;4.26;35.19;-62.34;-69.78;0.0;1002.63;44.511;30.281075;-97.70938;483.6;532.9269256788153;;0.0;51.870968;;10 / 20;1676;2018-02-21 20:31:54:106
8.2256;8.8468;3.6763;4.2729;8.6892;1.5735;-4.1899;-7.5913;-1.8725;-1.2396;-3.8763;-0.1085;0.562;-25.96;-4.66;4.26;35.19;-62.34;-69.78;0.0;1002.63;44.511;30.281075;-97.70938;483.6;532.9269256788153;;0.0;51.870968;;10 / 20;1685;2018-02-21 20:31:54:115
8.2256;8.8468;3.6763;4.2729;8.6892;1.5735;-4.1899;-7.5913;-1.8725;-1.2396;-3.8763;-0.1085;0.562;-25.96;-4.66;4.26;35.19;-62.34;-69.78;0.0;1002.63;57.73;30.281075;-97.70938;483.6;532.9269256788153;;0.0;51.870968;;10 / 20;1696;2018-02-21 20:31:54:126
8.2256;8.8468;3.6763;4.2729;8.6892;1.5735;-4.1899;-7.5913;-1.8725;-1.2396;-3.8763;-0.1085;0.562;-25.96;-4.66;4.26;35.19;-62.34;-69.78;0.0;1002.63;57.73;30.281075;-97.70938;483.6;532.9269256788153;;0.0;51.870968;;10 / 20;1706;2018-02-21 20:31:54:136
8.2256;8.8468;3.6763;4.2729;8.6892;1.5735;-4.1899;-7.5913;-1.8725;-1.2396;-3.8763;-0.1085;0.562;-25.96;-4.66;4.26;35.19;-62.34;-69.78;0.0;1002.63;57.73;30.281075;-97.70938;483.6;532.9269256788153;;0.0;51.870968;;10 / 20;1716;2018-02-21 20:31:54:146
8.2256;8.8468;3.6763;4.2729;8.6892;1.5735;-4.1899;-7.5913;-1.8725;-1.2396;-3.8763;-0.1085;0.562;-25.96;-4.66;4.26;35.19;-62.34;-69.78;0.0;1002.63;57.73;30.281075;-97.70938;483.6;532.9269256788153;;0.0;51.870968;;10 / 20;1725;2018-02-21 20:31:54:155
8.2256;8.8468;3.6763;4.2729;8.6892;1.5735;-4.1899;-7.5913;-1.8725;-1.2396;-3.8763;-0.1085;0.562;-25.96;-4.66;4.26;35.19;-62.34;-69.78;0.0;1002.63;57.73;30.281075;-97.70938;483.6;532.9269256788153;;0.0;51.870968;;10 / 20;1736;2018-02-21 20:31:54:166
9.7251;14.5032;2.6275;4.2729;8.6892;1.5735;-4.1899;-7.5913;-1.8725;-1.2396;-3.8763;-0.1085;0.562;-25.96;-4.66;4.26;35.19;-62.34;-69.78;0.0;1002.63;57.73;30.281075;-97.70938;483.6;532.9269256788153;;0.0;51.870968;;10 / 20;1746;2018-02-21 20:31:54:176
9.7251;14.5032;2.6275;4.2729;8.6892;1.5735;-4.1899;-7.5913;-1.8725;-1.2396;-3.8763;-0.1085;0.562;-25.96;-4.66;4.26;35.19;-62.34;-69.78;0.0;1002.63;57.73;30.281075;-97.70938;483.6;532.9269256788153;;0.0;51.870968;;10 / 20;1756;2018-02-21 20:31:54:186
9.7251;14.5032;2.6275;4.2729;8.6892;1.5735;-4.1899;-7.5913;-1.8725;-1.2396;-3.8763;-0.1085;0.562;-25.96;-4.66;4.26;35.19;-62.34;-69.78;0.0;1002.63;57.73;30.281075;-97.70938;483.6;532.9269256788153;;0.0;51.870968;;10 / 20;1766;2018-02-21 20:31:54:196
9.7251;14.5032;2.6275;4.2729;8.6892;1.5735;-4.1899;-7.5913;-1.8725;-1.2396;-3.8763;-0.1085;0.562;-25.96;-4.66;4.26;35.19;-62.34;-69.78;0.0;1002.65;57.73;30.281075;-97.70938;483.6;532.9269256788153;;0.0;51.870968;;10 / 20;1776;2018-02-21 20:31:54:206
9.7251;14.5032;2.6275;4.1704;8.2575;3.2647;-4.1899;-7.5913;-1.8725;-1.2396;-3.8763;-0.1085;0.562;-22.51;-7.81;8.16;50.03;-62.34;-69.78;0.0;1002.65;57.73;30.281075;-97.70938;483.6;532.9269256788153;;0.0;51.870968;;10 / 20;1785;2018-02-21 20:31:54:215
9.7251;14.5032;2.6275;4.1704;8.2575;3.2647;0.2658;1.8662;-0.138;-2.7067;-0.7025;-0.5736;0.562;-22.51;-7.81;8.16;50.03;-62.34;-69.78;0.0;1002.65;57.73;30.281075;-97.70938;483.6;532.9269256788153;;0.0;51.870968;;10 / 20;1796;2018-02-21 20:31:54:226
9.7251;14.5032;2.6275;4.1704;8.2575;3.2647;0.2658;1.8662;-0.138;-2.7067;-0.7025;-0.5736;0.562;-22.51;-7.81;8.16;50.03;-62.34;-69.78;0.0;1002.65;57.73;30.281075;-97.70938;483.6;532.9269256788153;;0.0;51.870968;;10 / 20;1806;2018-02-21 20:31:54:236
9.7251;14.5032;2.6275;4.1704;8.2575;3.2647;0.2658;1.8662;-0.138;-2.7067;-0.7025;-0.5736;0.562;-22.51;-7.81;8.16;50.03;-62.34;-69.78;0.0;1002.65;57.73;30.281075;-97.70938;483.6;532.9269256788153;;0.0;51.870968;;10 / 20;1816;2018-02-21 20:31:54:246
9.7251;14.5032;2.6275;4.1704;8.2575;3.2647;0.2658;1.8662;-0.138;-2.7067;-0.7025;-0.5736;0.562;-22.51;-7.81;8.16;50.03;-62.34;-69.78;0.0;1002.65;57.73;30.281075;-97.70938;483.6;532.9269256788153;;0.0;51.870968;;10 / 20;1825;2018-02-21 20:31:54:255
9.7251;14.5032;2.6275;4.1704;8.2575;3.2647;0.2658;1.8662;-0.138;-2.7067;-0.7025;-0.5736;0.562;-22.51;-7.81;8.16;50.03;-62.34;-69.78;0.0;1002.65;57.73;30.281075;-97.70938;483.6;532.9269256788153;;0.0;51.870968;;10 / 20;1836;2018-02-21 20:31:54:266
9.7251;14.5032;2.6275;4.1704;8.2575;3.2647;0.2658;1.8662;-0.138;-2.7067;-0.7025;-0.5736;0.562;-22.51;-7.81;8.16;50.03;-62.34;-69.78;0.0;1002.65;57.73;30.281075;-97.70938;483.6;532.9269256788153;;0.0;51.870968;;10 / 20;1846;2018-02-21 20:31:54:276
9.7251;14.5032;2.6275;4.1704;8.2575;3.2647;0.2658;1.8662;-0.138;-2.7067;-0.7025;-0.5736;0.562;-22.51;-7.81;8.16;50.03;-62.34;-69.78;0.0;1002.65;57.73;30.281075;-97.70938;483.6;532.9269256788153;;0.0;51.870968;;10 / 20;1855;2018-02-21 20:31:54:285
9.7251;14.5032;2.6275;4.1704;8.2575;3.2647;0.2658;1.8662;-0.138;-2.7067;-0.7025;-0.5736;0.562;-22.51;-7.81;8.16;50.03;-62.34;-69.78;0.0;1002.65;57.73;30.281075;-97.70938;483.6;532.9269256788153;;0.0;51.870968;;10 / 20;1866;2018-02-21 20:31:54:296
9.7251;14.5032;2.6275;4.1704;8.2575;3.2647;0.2658;1.8662;-0.138;-2.7067;-0.7025;-0.5736;0.562;-22.51;-7.81;8.16;50.03;-62.34;-69.78;0.0;1002.65;57.73;30.281075;-97.70938;483.6;532.9269256788153;;0.0;51.870968;;10 / 20;1875;2018-02-21 20:31:54:305
-0.9164;0.3858;0.5778;4.1704;8.2575;3.2647;0.2658;1.8662;-0.138;-2.7067;-0.7025;-0.5736;0.562;-22.51;-7.81;8.16;50.03;-62.34;-69.78;0.0;1002.65;57.73;30.281075;-97.70938;483.6;532.9269256788153;;0.0;51.870968;;10 / 20;1886;2018-02-21 20:31:54:316
-0.9164;0.3858;0.5778;4.1704;8.2575;3.2647;0.2658;1.8662;-0.138;-2.7067;-0.7025;-0.5736;0.562;-17.51;-14.11;4.06;80.84;-57.32;-51.95;0.0;1002.65;57.73;30.281075;-97.70938;483.6;532.9269256788153;;0.0;51.870968;;10 / 20;1896;2018-02-21 20:31:54:326
-0.9164;0.3858;0.5778;2.978;8.4732;3.9461;-2.8556;-1.6205;-1.1873;-2.7067;-0.7025;-0.5736;0.562;-17.51;-14.11;4.06;80.84;-57.32;-51.95;0.0;1002.65;57.73;30.281075;-97.70938;483.6;532.9269256788153;;0.0;51.870968;;10 / 20;1906;2018-02-21 20:31:54:336
-0.9164;0.3858;0.5778;2.978;8.4732;3.9461;-2.8556;-1.6205;-1.1873;-0.2684;-2.0158;-1.3132;0.562;-17.51;-14.11;4.06;80.84;-57.32;-51.95;0.0;1002.65;57.73;30.281075;-97.70938;483.6;532.9269256788153;;0.0;51.870968;;10 / 20;1915;2018-02-21 20:31:54:345
-0.9164;0.3858;0.5778;2.978;8.4732;3.9461;-2.8556;-1.6205;-1.1873;-0.2684;-2.0158;-1.3132;0.562;-17.51;-14.11;4.06;80.84;-57.32;-51.95;0.0;1002.65;57.73;30.281075;-97.70938;483.6;532.9269256788153;;0.0;51.870968;;10 / 20;1926;2018-02-21 20:31:54:356
-0.9164;0.3858;0.5778;2.978;8.4732;3.9461;-2.8556;-1.6205;-1.1873;-0.2684;-2.0158;-1.3132;0.562;-17.51;-14.11;4.06;80.84;-57.32;-51.95;0.0;1002.65;57.73;30.281075;-97.70938;483.6;532.9269256788153;;0.0;51.870968;;10 / 20;1936;2018-02-21 20:31:54:366
-0.9164;0.3858;0.5778;2.978;8.4732;3.9461;-2.8556;-1.6205;-1.1873;-0.2684;-2.0158;-1.3132;0.562;-17.51;-14.11;4.06;80.84;-57.32;-51.95;0.0;1002.65;57.73;30.281075;-97.70938;483.6;532.9269256788153;;0.0;51.870968;;10 / 20;1945;2018-02-21 20:31:54:375
-0.9164;0.3858;0.5778;2.978;8.4732;3.9461;-2.8556;-1.6205;-1.1873;-0.2684;-2.0158;-1.3132;0.562;-17.51;-14.11;4.06;80.84;-57.32;-51.95;0.0;1002.65;57.73;30.281075;-97.70938;483.6;532.9269256788153;;0.0;51.870968;;10 / 20;1956;2018-02-21 20:31:54:386
-0.9164;0.3858;0.5778;2.978;8.4732;3.9461;-2.8556;-1.6205;-1.1873;-0.2684;-2.0158;-1.3132;0.562;-17.51;-14.11;4.06;80.84;-57.32;-51.95;0.0;1002.65;57.73;30.281075;-97.70938;483.6;532.9269256788153;;0.0;51.870968;;10 / 20;1966;2018-02-21 20:31:54:396
-0.9164;0.3858;0.5778;2.978;8.4732;3.9461;-2.8556;-1.6205;-1.1873;-0.2684;-2.0158;-1.3132;0.562;-17.51;-14.11;4.06;80.84;-57.32;-51.95;0.0;1002.69;57.73;30.281075;-97.70938;483.6;532.9269256788153;;0.0;51.870968;;10 / 20;1976;2018-02-21 20:31:54:406
-0.9164;0.3858;0.5778;2.978;8.4732;3.9461;-2.8556;-1.6205;-1.1873;-0.2684;-2.0158;-1.3132;0.562;-17.51;-14.11;4.06;80.84;-57.32;-51.95;0.0;1002.69;57.73;30.281075;-97.70938;483.6;532.9269256788153;;0.0;51.870968;;10 / 20;1986;2018-02-21 20:31:54:416
-0.9164;0.3858;0.5778;2.978;8.4732;3.9461;-2.8556;-1.6205;-1.1873;-0.2684;-2.0158;-1.3132;0.562;-17.51;-14.11;4.06;80.84;-57.32;-51.95;0.0;1002.69;57.73;30.281075;-97.70938;483.6;532.9269256788153;;0.0;51.870968;;10 / 20;1995;2018-02-21 20:31:54:425
-0.9164;0.3858;0.5778;2.978;8.4732;3.9461;-2.8556;-1.6205;-1.1873;-0.2684;-2.0158;-1.3132;0.562;-17.51;-14.11;4.06;80.84;-57.32;-51.95;0.0;1002.69;63.178;30.281075;-97.70938;483.6;532.9269256788153;;0.0;51.870968;;10 / 20;2006;2018-02-21 20:31:54:436
-0.9164;0.3858;0.5778;2.978;8.4732;3.9461;1.6288;-2.7261;-1.721;-0.2684;-2.0158;-1.3132;0.562;-10.06;-19.11;8.91;128.28;-59.74;-37.04;0.0;1002.69;63.178;30.281075;-97.70938;483.6;532.9269256788153;;0.0;51.870968;;10 / 20;2016;2018-02-21 20:31:54:446
3.9846;10.7294;3.294;2.0181;8.9863;3.3779;1.6288;-2.7261;-1.721;-0.2684;-2.0158;-1.3132;0.562;-10.06;-19.11;8.91;128.28;-59.74;-37.04;0.0;1002.69;63.178;30.281075;-97.70938;483.6;532.9269256788153;;0.0;51.870968;;10 / 20;2026;2018-02-21 20:31:54:456
3.9846;10.7294;3.294;2.0181;8.9863;3.3779;1.6288;-2.7261;-1.721;0.1504;-2.723;-1.7746;0.562;-10.06;-19.11;8.91;128.28;-59.74;-37.04;0.0;1002.69;63.178;30.281075;-97.70938;483.6;532.9269256788153;;0.0;51.870968;;10 / 20;2036;2018-02-21 20:31:54:466
3.9846;10.7294;3.294;2.0181;8.9863;3.3779;1.6288;-2.7261;-1.721;0.1504;-2.723;-1.7746;0.562;-10.06;-19.11;8.91;128.28;-59.74;-37.04;0.0;1002.69;63.178;30.281075;-97.70938;483.6;532.9269256788153;;0.0;51.870968;;10 / 20;2046;2018-02-21 20:31:54:476
3.9846;10.7294;3.294;2.0181;8.9863;3.3779;1.6288;-2.7261;-1.721;0.1504;-2.723;-1.7746;0.562;-10.06;-19.11;8.91;128.28;-59.74;-37.04;0.0;1002.69;63.178;30.281075;-97.70938;483.6;532.9269256788153;;0.0;51.870968;;10 / 20;2056;2018-02-21 20:31:54:486
3.9846;10.7294;3.294;2.0181;8.9863;3.3779;1.6288;-2.7261;-1.721;0.1504;-2.723;-1.7746;0.562;-10.06;-19.11;8.91;128.28;-59.74;-37.04;0.0;1002.69;63.178;30.281075;-97.70938;483.6;532.9269256788153;;0.0;51.870968;;10 / 20;2066;2018-02-21 20:31:54:496
3.9846;10.7294;3.294;2.0181;8.9863;3.3779;1.6288;-2.7261;-1.721;0.1504;-2.723;-1.7746;0.562;-10.06;-19.11;8.91;128.28;-59.74;-37.04;0.0;1002.69;63.178;30.281075;-97.70938;483.6;532.9269256788153;;0.0;51.870968;;10 / 20;2076;2018-02-21 20:31:54:506
3.9846;10.7294;3.294;2.0181;8.9863;3.3779;1.6288;-2.7261;-1.721;0.1504;-2.723;-1.7746;0.562;-10.06;-19.11;8.91;128.28;-59.74;-37.04;0.0;1002.69;63.178;30.281075;-97.70938;483.6;532.9269256788153;;0.0;51.870968;;10 / 20;2086;2018-02-21 20:31:54:516
3.9846;10.7294;3.294;2.0181;8.9863;3.3779;1.6288;-2.7261;-1.721;0.1504;-2.723;-1.7746;0.562;-10.06;-19.11;8.91;128.28;-59.74;-37.04;0.0;1002.69;63.178;30.281075;-97.70938;483.6;532.9269256788153;;0.0;51.870968;;10 / 20;2095;2018-02-21 20:31:54:525
3.9846;10.7294;3.294;2.0181;8.9863;3.3779;1.6288;-2.7261;-1.721;0.1504;-2.723;-1.7746;0.562;-10.06;-19.11;8.91;128.28;-59.74;-37.04;0.0;1002.69;63.178;30.281075;-97.70938;483.6;532.9269256788153;;0.0;51.870968;;10 / 20;2106;2018-02-21 20:31:54:536
3.9846;10.7294;3.294;2.0181;8.9863;3.3779;1.6288;-2.7261;-1.721;0.1504;-2.723;-1.7746;0.562;-10.06;-19.11;8.91;128.28;-59.74;-37.04;0.0;1002.69;63.178;30.281075;-97.70938;483.6;532.9269256788153;;0.0;51.870968;;10 / 20;2116;2018-02-21 20:31:54:546
3.9846;10.7294;3.294;2.0181;8.9863;3.3779;1.6288;-2.7261;-1.721;0.1504;-2.723;-1.7746;0.562;-0.06;-20.61;15.31;159.17;-66.35;-30.86;0.0;1002.69;63.178;30.281075;-97.70938;483.6;532.9269256788153;;0.0;51.870968;;10 / 20;2125;2018-02-21 20:31:54:555
3.9846;10.7294;3.294;2.0181;8.9863;3.3779;2.184;-1.1803;1.8074;0.1504;-2.723;-1.7746;0.562;-0.06;-20.61;15.31;159.17;-66.35;-30.86;0.0;1002.69;63.178;30.281075;-97.70938;483.6;532.9269256788153;;0.0;51.870968;;10 / 20;2135;2018-02-21 20:31:54:565
3.9846;10.7294;3.294;2.0181;8.9863;3.3779;2.184;-1.1803;1.8074;0.1504;-2.723;-1.7746;0.562;-0.06;-20.61;15.31;159.17;-66.35;-30.86;0.0;1002.69;63.178;30.281075;-97.70938;483.6;532.9269256788153;;0.0;51.870968;;10 / 20;2146;2018-02-21 20:31:54:576
3.9846;10.7294;3.294;1.6345;9.6077;1.1209;2.184;-1.1803;1.8074;0.1504;-2.723;-1.7746;0.562;-0.06;-20.61;15.31;159.17;-66.35;-30.86;0.0;1002.69;63.178;30.281075;-97.70938;483.6;532.9269256788153;;0.0;51.870968;;10 / 20;2155;2018-02-21 20:31:54:585
0.0166;11.2628;-0.7994;1.6345;9.6077;1.1209;2.184;-1.1803;1.8074;1.3306;-2.5311;-0.2796;0.562;-0.06;-20.61;15.31;159.17;-66.35;-30.86;0.0;1002.69;63.178;30.281075;-97.70938;483.6;532.9269256788153;;0.0;51.870968;;10 / 20;2166;2018-02-21 20:31:54:596
0.0166;11.2628;-0.7994;1.6345;9.6077;1.1209;2.184;-1.1803;1.8074;1.3306;-2.5311;-0.2796;0.562;-0.06;-20.61;15.31;159.17;-66.35;-30.86;0.0;1002.64;63.178;30.281075;-97.70938;483.6;532.9269256788153;;0.0;51.870968;;10 / 20;2176;2018-02-21 20:31:54:606
0.0166;11.2628;-0.7994;1.6345;9.6077;1.1209;2.184;-1.1803;1.8074;1.3306;-2.5311;-0.2796;0.562;-0.06;-20.61;15.31;159.17;-66.35;-30.86;0.0;1002.64;63.178;30.281075;-97.70938;483.6;532.9269256788153;;0.0;51.870968;;10 / 20;2185;2018-02-21 20:31:54:615
0.0166;11.2628;-0.7994;1.6345;9.6077;1.1209;2.184;-1.1803;1.8074;1.3306;-2.5311;-0.2796;0.562;-0.06;-20.61;15.31;159.17;-66.35;-30.86;0.0;1002.64;63.178;30.281075;-97.70938;483.6;532.9269256788153;;0.0;51.870968;;10 / 20;2196;2018-02-21 20:31:54:626
0.0166;11.2628;-0.7994;1.6345;9.6077;1.1209;2.184;-1.1803;1.8074;1.3306;-2.5311;-0.2796;0.562;-0.06;-20.61;15.31;159.17;-66.35;-30.86;0.0;1002.64;63.178;30.281075;-97.70938;483.6;532.9269256788153;;0.0;51.870968;;10 / 20;2206;2018-02-21 20:31:54:636
0.0166;11.2628;-0.7994;1.6345;9.6077;1.1209;2.184;-1.1803;1.8074;1.3306;-2.5311;-0.2796;0.562;-0.06;-20.61;15.31;159.17;-66.35;-30.86;0.0;1002.64;63.178;30.281075;-97.70938;483.6;532.9269256788153;;0.0;51.870968;;10 / 20;2216;2018-02-21 20:31:54:646
0.0166;11.2628;-0.7994;1.6345;9.6077;1.1209;2.184;-1.1803;1.8074;1.3306;-2.5311;-0.2796;0.562;-0.06;-20.61;15.31;159.17;-66.35;-30.86;0.0;1002.64;63.178;30.281075;-97.70938;483.6;532.9269256788153;;0.0;51.870968;;10 / 20;2226;2018-02-21 20:31:54:656
0.0166;11.2628;-0.7994;1.6345;9.6077;1.1209;2.184;-1.1803;1.8074;1.3306;-2.5311;-0.2796;0.562;-0.06;-20.61;15.31;159.17;-66.35;-30.86;0.0;1002.64;63.178;30.281075;-97.70938;483.6;532.9269256788153;;0.0;51.870968;;10 / 20;2235;2018-02-21 20:31:54:665
0.0166;11.2628;-0.7994;1.6345;9.6077;1.1209;-8.203;6.3255;-3.3212;1.3306;-2.5311;-0.2796;0.562;5.79;-17.71;23.21;143.73;-78.34;-55.56;0.0;1002.64;63.178;30.281075;-97.70938;483.6;532.9269256788153;;0.0;51.870968;;10 / 20;2245;2018-02-21 20:31:54:675
0.0166;11.2628;-0.7994;1.6345;9.6077;1.1209;-8.203;6.3255;-3.3212;1.3306;-2.5311;-0.2796;0.562;5.79;-17.71;23.21;143.73;-78.34;-55.56;0.0;1002.64;63.178;30.281075;-97.70938;483.6;532.9269256788153;;0.0;51.870968;;10 / 20;2256;2018-02-21 20:31:54:686
0.0166;11.2628;-0.7994;1.6345;9.6077;1.1209;-8.203;6.3255;-3.3212;1.3306;-2.5311;-0.2796;0.562;5.79;-17.71;23.21;143.73;-78.34;-55.56;0.0;1002.64;63.178;30.281075;-97.70938;483.6;532.9269256788153;;0.0;51.870968;;10 / 20;2266;2018-02-21 20:31:54:696
0.0166;11.2628;-0.7994;3.3778;9.2048;0.3127;-8.203;6.3255;-3.3212;1.3306;-2.5311;-0.2796;0.562;5.79;-17.71;23.21;143.73;-78.34;-55.56;0.0;1002.64;63.178;30.281075;-97.70938;483.6;532.9269256788153;;0.0;51.870968;;10 / 20;2276;2018-02-21 20:31:54:706
0.0166;11.2628;-0.7994;3.3778;9.2048;0.3127;-8.203;6.3255;-3.3212;-0.4352;-0.4162;2.8739;0.562;5.79;-17.71;23.21;143.73;-78.34;-55.56;0.0;1002.64;63.178;30.281075;-97.70938;483.6;532.9269256788153;;0.0;51.870968;;10 / 20;2286;2018-02-21 20:31:54:716
0.0166;11.2628;-0.7994;3.3778;9.2048;0.3127;-8.203;6.3255;-3.3212;-0.4352;-0.4162;2.8739;0.562;5.79;-17.71;23.21;143.73;-78.34;-55.56;0.0;1002.64;63.178;30.281075;-97.70938;483.6;532.9269256788153;;0.0;51.870968;;10 / 20;2296;2018-02-21 20:31:54:726
10.5934;3.1238;3.4003;3.3778;9.2048;0.3127;-8.203;6.3255;-3.3212;-0.4352;-0.4162;2.8739;0.562;5.79;-17.71;23.21;143.73;-78.34;-55.56;0.0;1002.64;63.178;30.281075;-97.70938;483.6;532.9269256788153;;0.0;51.870968;;10 / 20;2306;2018-02-21 20:31:54:736
10.5934;3.1238;3.4003;3.3778;9.2048;0.3127;-8.203;6.3255;-3.3212;-0.4352;-0.4162;2.8739;0.562;5.79;-17.71;23.21;143.73;-78.34;-55.56;0.0;1002.64;63.178;30.281075;-97.70938;483.6;532.9269256788153;;0.0;51.870968;;10 / 20;2315;2018-02-21 20:31:54:745
10.5934;3.1238;3.4003;3.3778;9.2048;0.3127;-8.203;6.3255;-3.3212;-0.4352;-0.4162;2.8739;0.562;5.79;-17.71;23.21;143.73;-78.34;-55.56;0.0;1002.64;63.393;30.281075;-97.70938;483.6;532.9269256788153;;0.0;51.870968;;10 / 20;2326;2018-02-21 20:31:54:756
10.5934;3.1238;3.4003;3.3778;9.2048;0.3127;-8.203;6.3255;-3.3212;-0.4352;-0.4162;2.8739;0.562;5.79;-17.71;23.21;143.73;-78.34;-55.56;0.0;1002.64;63.393;30.281075;-97.70938;483.6;532.9269256788153;;0.0;51.870968;;10 / 20;2335;2018-02-21 20:31:54:765
10.5934;3.1238;3.4003;3.3778;9.2048;0.3127;-8.203;6.3255;-3.3212;-0.4352;-0.4162;2.8739;0.062;5.79;-17.71;23.21;143.73;-78.34;-55.56;0.0;1002.64;63.393;30.281075;-97.70938;483.6;532.9269256788153;;0.0;51.870968;;10 / 20;2345;2018-02-21 20:31:54:775
10.5934;3.1238;3.4003;3.3778;9.2048;0.3127;-8.203;6.3255;-3.3212;-0.4352;-0.4162;2.8739;0.062;-3.71;-17.61;20.41;101.74;-69.77;-84.71;0.0;1002.64;63.393;30.281075;-97.70938;483.6;532.9269256788153;;0.0;51.870968;;10 / 20;2356;2018-02-21 20:31:54:786
10.5934;3.1238;3.4003;3.3778;9.2048;0.3127;5.9503;-0.51;-1.9836;-0.4352;-0.4162;2.8739;0.062;-3.71;-17.61;20.41;101.74;-69.77;-84.71;0.0;1002.64;63.393;30.281075;-97.70938;483.6;532.9269256788153;;0.0;51.870968;;10 / 20;2366;2018-02-21 20:31:54:796
10.5934;3.1238;3.4003;3.3778;9.2048;0.3127;5.9503;-0.51;-1.9836;-0.4352;-0.4162;2.8739;0.062;-3.71;-17.61;20.41;101.74;-69.77;-84.71;0.0;1002.62;63.393;30.281075;-97.70938;483.6;532.9269256788153;;0.0;51.870968;;10 / 20;2376;2018-02-21 20:31:54:806
10.5934;3.1238;3.4003;3.3778;9.2048;0.3127;5.9503;-0.51;-1.9836;-0.4352;-0.4162;2.8739;0.062;-3.71;-17.61;20.41;101.74;-69.77;-84.71;0.0;1002.62;63.393;30.281075;-97.70938;483.6;532.9269256788153;;0.0;51.870968;;10 / 20;2386;2018-02-21 20:31:54:816
10.5934;3.1238;3.4003;3.3778;9.2048;0.3127;5.9503;-0.51;-1.9836;-0.4352;-0.4162;2.8739;0.062;-3.71;-17.61;20.41;101.74;-69.77;-84.71;0.0;1002.62;63.393;30.281075;-97.70938;483.6;532.9269256788153;;0.0;51.870968;;10 / 20;2395;2018-02-21 20:31:54:825
10.5934;3.1238;3.4003;5.3142;8.1923;0.9393;5.9503;-0.51;-1.9836;-0.4352;-0.4162;2.8739;0.062;-3.71;-17.61;20.41;101.74;-69.77;-84.71;0.0;1002.62;63.393;30.281075;-97.70938;483.6;532.9269256788153;;0.0;51.870968;;10 / 20;2406;2018-02-21 20:31:54:836
10.5934;3.1238;3.4003;5.3142;8.1923;0.9393;5.9503;-0.51;-1.9836;-1.8809;-2.752;-0.5453;0.062;-3.71;-17.61;20.41;101.74;-69.77;-84.71;0.0;1002.62;63.393;30.281075;-97.70938;483.6;532.9269256788153;;0.0;51.870968;;10 / 20;2415;2018-02-21 20:31:54:845
10.5934;3.1238;3.4003;5.3142;8.1923;0.9393;5.9503;-0.51;-1.9836;-1.8809;-2.752;-0.5453;0.062;-3.71;-17.61;20.41;101.74;-69.77;-84.71;0.0;1002.62;63.393;30.281075;-97.70938;483.6;532.9269256788153;;0.0;51.870968;;10 / 20;2426;2018-02-21 20:31:54:856
10.5934;3.1238;3.4003;5.3142;8.1923;0.9393;5.9503;-0.51;-1.9836;-1.8809;-2.752;-0.5453;0.062;-3.71;-17.61;20.41;101.74;-69.77;-84.71;0.0;1002.62;63.393;30.281075;-97.70938;483.6;532.9269256788153;;0.0;51.870968;;10 / 20;2435;2018-02-21 20:31:54:865
-2.8303;13.3581;4.0071;5.3142;8.1923;0.9393;5.9503;-0.51;-1.9836;-1.8809;-2.752;-0.5453;0.062;-3.71;-17.61;20.41;101.74;-69.77;-84.71;0.0;1002.62;63.393;30.281075;-97.70938;483.6;532.9269256788153;;0.0;51.870968;;10 / 20;2446;2018-02-21 20:31:54:876
-2.8303;13.3581;4.0071;5.3142;8.1923;0.9393;5.9503;-0.51;-1.9836;-1.8809;-2.752;-0.5453;0.062;-3.71;-17.61;20.41;101.74;-69.77;-84.71;0.0;1002.62;63.393;30.281075;-97.70938;483.6;532.9269256788153;;0.0;51.870968;;10 / 20;2455;2018-02-21 20:31:54:885
-2.8303;13.3581;4.0071;5.3142;8.1923;0.9393;5.9503;-0.51;-1.9836;-1.8809;-2.752;-0.5453;0.062;2.89;-20.36;14.66;137.68;-56.63;-79.98;0.0;1002.62;63.393;30.281075;-97.70938;483.6;532.9269256788153;;0.0;51.870968;;10 / 20;2466;2018-02-21 20:31:54:896
-2.8303;13.3581;4.0071;5.3142;8.1923;0.9393;-6.3964;-1.9647;-2.3956;-1.8809;-2.752;-0.5453;0.062;2.89;-20.36;14.66;137.68;-56.63;-79.98;0.0;1002.62;63.393;30.281075;-97.70938;483.6;532.9269256788153;;0.0;51.870968;;10 / 20;2476;2018-02-21 20:31:54:906
-2.8303;13.3581;4.0071;5.3142;8.1923;0.9393;-6.3964;-1.9647;-2.3956;-1.8809;-2.752;-0.5453;0.062;2.89;-20.36;14.66;137.68;-56.63;-79.98;0.0;1002.62;63.393;30.281075;-97.70938;483.6;532.9269256788153;;0.0;51.870968;;10 / 20;2486;2018-02-21 20:31:54:916
-2.8303;13.3581;4.0071;5.3142;8.1923;0.9393;-6.3964;-1.9647;-2.3956;-1.8809;-2.752;-0.5453;0.062;2.89;-20.36;14.66;137.68;-56.63;-79.98;0.0;1002.62;63.393;30.281075;-97.70938;483.6;532.9269256788153;;0.0;51.870968;;10 / 20;2496;2018-02-21 20:31:54:926
-2.8303;13.3581;4.0071;5.3142;8.1923;0.9393;-6.3964;-1.9647;-2.3956;-1.8809;-2.752;-0.5453;0.062;2.89;-20.36;14.66;137.68;-56.63;-79.98;0.0;1002.62;63.393;30.281075;-97.70938;483.6;532.9269256788153;;0.0;51.870968;;10 / 20;2506;2018-02-21 20:31:54:936
-2.8303;13.3581;4.0071;5.3142;8.1923;0.9393;-6.3964;-1.9647;-2.3956;-1.8809;-2.752;-0.5453;0.062;2.89;-20.36;14.66;137.68;-56.63;-79.98;0.0;1002.62;63.393;30.281075;-97.70938;483.6;532.9269256788153;;0.0;51.870968;;10 / 20;2516;2018-02-21 20:31:54:946
-2.8303;13.3581;4.0071;2.5438;9.1993;2.2665;-6.3964;-1.9647;-2.3956;-1.8809;-2.752;-0.5453;0.062;2.89;-20.36;14.66;137.68;-56.63;-79.98;0.0;1002.62;63.393;30.281075;-97.70938;483.6;532.9269256788153;;0.0;51.870968;;10 / 20;2525;2018-02-21 20:31:54:955
-2.8303;13.3581;4.0071;2.5438;9.1993;2.2665;-6.3964;-1.9647;-2.3956;-1.5683;0.7486;-2.7688;0.062;2.89;-20.36;14.66;137.68;-56.63;-79.98;0.0;1002.62;63.393;30.281075;-97.70938;483.6;532.9269256788153;;0.0;51.870968;;10 / 20;2536;2018-02-21 20:31:54:966
-2.8303;13.3581;4.0071;2.5438;9.1993;2.2665;-6.3964;-1.9647;-2.3956;-1.5683;0.7486;-2.7688;0.062;2.89;-20.36;14.66;137.68;-56.63;-79.98;0.0;1002.62;63.393;30.281075;-97.70938;483.6;532.9269256788153;;0.0;51.870968;;10 / 20;2546;2018-02-21 20:31:54:976
-2.8303;13.3581;4.0071;2.5438;9.1993;2.2665;-6.3964;-1.9647;-2.3956;-1.5683;0.7486;-2.7688;0.062;2.89;-20.36;14.66;137.68;-56.63;-79.98;0.0;1002.62;63.393;30.281075;-97.70938;483.6;532.9269256788153;;0.0;51.870968;;10 / 20;2556;2018-02-21 20:31:54:986
-2.8303;13.3581;4.0071;2.5438;9.1993;2.2665;-6.3964;-1.9647;-2.3956;-1.5683;0.7486;-2.7688;0.062;2.89;-20.36;14.66;137.68;-56.63;-79.98;0.0;1002.62;63.393;30.281075;-97.70938;483.6;532.9269256788153;;0.0;51.870968;;10 / 20;2566;2018-02-21 20:31:54:996
-2.8303;13.3581;4.0071;2.5438;9.1993;2.2665;-6.3964;-1.9647;-2.3956;-1.5683;0.7486;-2.7688;0.062;2.89;-20.36;14.66;137.68;-56.63;-79.98;0.0;1002.6;63.393;30.281075;-97.70938;483.6;532.9269256788153;;0.0;51.870968;;10 / 20;2575;2018-02-21 20:31:55:005
4.3247;14.6529;2.7601;2.5438;9.1993;2.2665;-6.3964;-1.9647;-2.3956;-1.5683;0.7486;-2.7688;0.062;16.24;-22.31;9.76;187.22;-69.68;-48.3;0.0;1002.6;63.393;30.281075;-97.70938;483.6;532.9269256788153;;0.0;51.870968;;10 / 20;2586;2018-02-21 20:31:55:016
4.3247;14.6529;2.7601;2.5438;9.1993;2.2665;-3.3503;2.2773;-2.9343;-1.5683;0.7486;-2.7688;0.062;16.24;-22.31;9.76;187.22;-69.68;-48.3;0.0;1002.6;63.393;30.281075;-97.70938;483.6;532.9269256788153;;0.0;51.870968;;10 / 20;2596;2018-02-21 20:31:55:026
4.3247;14.6529;2.7601;2.5438;9.1993;2.2665;-3.3503;2.2773;-2.9343;-1.5683;0.7486;-2.7688;0.062;16.24;-22.31;9.76;187.22;-69.68;-48.3;0.0;1002.6;63.393;30.281075;-97.70938;483.6;532.9269256788153;;0.0;51.870968;;10 / 20;2606;2018-02-21 20:31:55:036
4.3247;14.6529;2.7601;2.5438;9.1993;2.2665;-3.3503;2.2773;-2.9343;-1.5683;0.7486;-2.7688;0.062;16.24;-22.31;9.76;187.22;-69.68;-48.3;0.0;1002.6;63.393;30.281075;-97.70938;483.6;532.9269256788153;;0.0;51.870968;;10 / 20;2616;2018-02-21 20:31:55:046
4.3247;14.6529;2.7601;2.5438;9.1993;2.2665;-3.3503;2.2773;-2.9343;-1.5683;0.7486;-2.7688;0.062;16.24;-22.31;9.76;187.22;-69.68;-48.3;0.0;1002.6;63.393;30.281075;-97.70938;483.6;532.9269256788153;;0.0;51.870968;;10 / 20;2625;2018-02-21 20:31:55:055
4.3247;14.6529;2.7601;2.5438;9.1993;2.2665;-3.3503;2.2773;-2.9343;-1.5683;0.7486;-2.7688;0.062;16.24;-22.31;9.76;187.22;-69.68;-48.3;0.0;1002.6;63.393;30.281075;-97.70938;483.6;532.9269256788153;;0.0;51.870968;;10 / 20;2636;2018-02-21 20:31:55:066
4.3247;14.6529;2.7601;2.5438;9.1993;2.2665;-3.3503;2.2773;-2.9343;-1.5683;0.7486;-2.7688;0.062;16.24;-22.31;9.76;187.22;-69.68;-48.3;0.0;1002.6;63.393;30.281075;-97.70938;483.6;532.9269256788153;;0.0;51.870968;;10 / 20;2646;2018-02-21 20:31:55:076
4.3247;14.6529;2.7601;1.1997;9.5622;1.8335;-3.3503;2.2773;-2.9343;-1.5683;0.7486;-2.7688;0.062;16.24;-22.31;9.76;187.22;-69.68;-48.3;0.0;1002.6;54.991;30.281075;-97.70938;483.6;532.9269256788153;;0.0;51.870968;;10 / 20;2655;2018-02-21 20:31:55:085
4.3247;14.6529;2.7601;1.1997;9.5622;1.8335;-3.3503;2.2773;-2.9343;1.0268;1.655;0.6316;0.062;16.24;-22.31;9.76;187.22;-69.68;-48.3;0.0;1002.6;54.991;30.281075;-97.70938;483.6;532.9269256788153;;0.0;51.870968;;10 / 20;2666;2018-02-21 20:31:55:096
4.3247;14.6529;2.7601;1.1997;9.5622;1.8335;-3.3503;2.2773;-2.9343;1.0268;1.655;0.6316;0.062;16.24;-22.31;9.76;187.22;-69.68;-48.3;0.0;1002.6;54.991;30.281075;-97.70938;483.6;532.9269256788153;;0.0;51.870968;;10 / 20;2676;2018-02-21 20:31:55:106
4.3247;14.6529;2.7601;1.1997;9.5622;1.8335;-3.3503;2.2773;-2.9343;1.0268;1.655;0.6316;0.062;16.24;-22.31;9.76;187.22;-69.68;-48.3;0.0;1002.6;54.991;30.281075;-97.70938;483.6;532.9269256788153;;0.0;51.870968;;10 / 20;2686;2018-02-21 20:31:55:116
4.3247;14.6529;2.7601;1.1997;9.5622;1.8335;-3.3503;2.2773;-2.9343;1.0268;1.655;0.6316;0.062;14.19;-21.91;15.81;186.63;-77.09;-33.2;0.0;1002.6;54.991;30.281075;-97.70938;483.6;532.9269256788153;;0.0;51.870968;;10 / 20;2696;2018-02-21 20:31:55:126
4.3247;14.6529;2.7601;1.1997;9.5622;1.8335;-1.2282;4.3372;0.9361;1.0268;1.655;0.6316;0.062;14.19;-21.91;15.81;186.63;-77.09;-33.2;0.0;1002.6;54.991;30.281075;-97.70938;483.6;532.9269256788153;;0.0;51.870968;;10 / 20;2706;2018-02-21 20:31:55:136
4.3247;14.6529;2.7601;1.1997;9.5622;1.8335;-1.2282;4.3372;0.9361;1.0268;1.655;0.6316;0.062;14.19;-21.91;15.81;186.63;-77.09;-33.2;0.0;1002.6;54.991;30.281075;-97.70938;483.6;532.9269256788153;;0.0;51.870968;;10 / 20;2715;2018-02-21 20:31:55:145
6.4267;9.1033;-5.0386;1.1997;9.5622;1.8335;-1.2282;4.3372;0.9361;1.0268;1.655;0.6316;0.062;14.19;-21.91;15.81;186.63;-77.09;-33.2;0.0;1002.6;54.991;30.281075;-97.70938;483.6;532.9269256788153;;0.0;51.870968;;10 / 20;2725;2018-02-21 20:31:55:155
6.4267;9.1033;-5.0386;1.1997;9.5622;1.8335;-1.2282;4.3372;0.9361;1.0268;1.655;0.6316;0.062;14.19;-21.91;15.81;186.63;-77.09;-33.2;0.0;1002.6;54.991;30.281075;-97.70938;483.6;532.9269256788153;;0.0;51.870968;;10 / 20;2736;2018-02-21 20:31:55:166
6.4267;9.1033;-5.0386;1.1997;9.5622;1.8335;-1.2282;4.3372;0.9361;1.0268;1.655;0.6316;0.062;14.19;-21.91;15.81;186.63;-77.09;-33.2;0.0;1002.6;54.991;30.281075;-97.70938;483.6;532.9269256788153;;0.0;51.870968;;10 / 20;2745;2018-02-21 20:31:55:175
6.4267;9.1033;-5.0386;1.1997;9.5622;1.8335;-1.2282;4.3372;0.9361;1.0268;1.655;0.6316;0.062;14.19;-21.91;15.81;186.63;-77.09;-33.2;0.0;1002.6;54.991;30.281075;-97.70938;483.6;532.9269256788153;;0.0;51.870968;;10 / 20;2756;2018-02-21 20:31:55:186
6.4267;9.1033;-5.0386;1.1997;9.5622;1.8335;-1.2282;4.3372;0.9361;1.0268;1.655;0.6316;0.062;14.19;-21.91;15.81;186.63;-77.09;-33.2;0.0;1002.6;54.991;30.281075;-97.70938;483.6;532.9269256788153;;0.0;51.870968;;10 / 20;2766;2018-02-21 20:31:55:196
6.4267;9.1033;-5.0386;1.2058;9.6369;1.3829;-1.2282;4.3372;0.9361;1.0268;1.655;0.6316;0.062;14.19;-21.91;15.81;186.63;-77.09;-33.2;0.0;1002.91;54.991;30.281075;-97.70938;483.6;532.9269256788153;;0.0;51.870968;;10 / 20;2776;2018-02-21 20:31:55:206
6.4267;9.1033;-5.0386;1.2058;9.6369;1.3829;-1.2282;4.3372;0.9361;-0.2415;-1.1558;-0.3388;0.062;14.19;-21.91;15.81;186.63;-77.09;-33.2;0.0;1002.91;54.991;30.281075;-97.70938;483.6;532.9269256788153;;0.0;51.870968;;10 / 20;2785;2018-02-21 20:31:55:215
6.4267;9.1033;-5.0386;1.2058;9.6369;1.3829;-1.2282;4.3372;0.9361;-0.2415;-1.1558;-0.3388;0.062;14.19;-21.91;15.81;186.63;-77.09;-33.2;0.0;1002.91;54.991;30.281075;-97.70938;483.6;532.9269256788153;;0.0;51.870968;;10 / 20;2796;2018-02-21 20:31:55:226
6.4267;9.1033;-5.0386;1.2058;9.6369;1.3829;-1.2282;4.3372;0.9361;-0.2415;-1.1558;-0.3388;0.062;14.19;-21.91;15.81;186.63;-77.09;-33.2;0.0;1002.91;54.991;30.281075;-97.70938;483.6;532.9269256788153;;0.0;51.870968;;10 / 20;2806;2018-02-21 20:31:55:236
6.4267;9.1033;-5.0386;1.2058;9.6369;1.3829;-1.2282;4.3372;0.9361;-0.2415;-1.1558;-0.3388;0.062;16.14;-20.21;15.76;183.41;-79.22;-41.09;0.0;1002.91;54.991;30.281075;-97.70938;483.6;532.9269256788153;;0.0;51.870968;;10 / 20;2816;2018-02-21 20:31:55:246
6.4267;9.1033;-5.0386;1.2058;9.6369;1.3829;0.0133;3.2895;7.0237;-0.2415;-1.1558;-0.3388;0.062;16.14;-20.21;15.76;183.41;-79.22;-41.09;0.0;1002.91;54.991;30.281075;-97.70938;483.6;532.9269256788153;;0.0;51.870968;;10 / 20;2826;2018-02-21 20:31:55:256
6.4267;9.1033;-5.0386;1.2058;9.6369;1.3829;0.0133;3.2895;7.0237;-0.2415;-1.1558;-0.3388;0.062;16.14;-20.21;15.76;183.41;-79.22;-41.09;0.0;1002.91;54.991;30.281075;-97.70938;483.6;532.9269256788153;;0.0;51.870968;;10 / 20;2836;2018-02-21 20:31:55:266
6.4267;9.1033;-5.0386;1.2058;9.6369;1.3829;0.0133;3.2895;7.0237;-0.2415;-1.1558;-0.3388;0.062;16.14;-20.21;15.76;183.41;-79.22;-41.09;0.0;1002.91;54.991;30.281075;-97.70938;483.6;532.9269256788153;;0.0;51.870968;;10 / 20;2846;2018-02-21 20:31:55:276
6.4267;9.1033;-5.0386;1.2058;9.6369;1.3829;0.0133;3.2895;7.0237;-0.2415;-1.1558;-0.3388;0.062;16.14;-20.21;15.76;183.41;-79.22;-41.09;0.0;1002.91;54.991;30.281075;-97.70938;483.6;532.9269256788153;;0.0;51.870968;;10 / 20;2855;2018-02-21 20:31:55:285
0.9041;7.0555;-4.8009;1.2058;9.6369;1.3829;0.0133;3.2895;7.0237;-0.2415;-1.1558;-0.3388;0.062;16.14;-20.21;15.76;183.41;-79.22;-41.09;0.0;1002.91;54.991;30.281075;-97.70938;483.6;532.9269256788153;;0.0;51.870968;;10 / 20;2866;2018-02-21 20:31:55:296
0.9041;7.0555;-4.8009;1.2058;9.6369;1.3829;0.0133;3.2895;7.0237;-0.2415;-1.1558;-0.3388;0.062;16.14;-20.21;15.76;183.41;-79.22;-41.09;0.0;1002.91;54.991;30.281075;-97.70938;483.6;532.9269256788153;;0.0;51.870968;;10 / 20;2876;2018-02-21 20:31:55:306
0.9041;7.0555;-4.8009;1.2058;9.6369;1.3829;0.0133;3.2895;7.0237;-0.2415;-1.1558;-0.3388;0.062;16.14;-20.21;15.76;183.41;-79.22;-41.09;0.0;1002.91;54.991;30.281075;-97.70938;483.6;532.9269256788153;;0.0;51.870968;;10 / 20;2885;2018-02-21 20:31:55:315
0.9041;7.0555;-4.8009;1.2058;9.6369;1.3829;0.0133;3.2895;7.0237;-0.2415;-1.1558;-0.3388;0.062;16.14;-20.21;15.76;183.41;-79.22;-41.09;0.0;1002.91;54.991;30.281075;-97.70938;483.6;532.9269256788153;;0.0;51.870968;;10 / 20;2896;2018-02-21 20:31:55:326
0.9041;7.0555;-4.8009;-0.6888;9.5561;-2.1079;0.0133;3.2895;7.0237;-0.2415;-1.1558;-0.3388;0.062;16.14;-20.21;15.76;183.41;-79.22;-41.09;0.0;1002.91;54.991;30.281075;-97.70938;483.6;532.9269256788153;;0.0;51.870968;;10 / 20;2906;2018-02-21 20:31:55:336
0.9041;7.0555;-4.8009;-0.6888;9.5561;-2.1079;0.0133;3.2895;7.0237;2.6133;-4.1769;-0.9339;0.062;16.14;-20.21;15.76;183.41;-79.22;-41.09;0.0;1002.91;54.991;30.281075;-97.70938;483.6;532.9269256788153;;0.0;51.870968;;10 / 20;2915;2018-02-21 20:31:55:345
0.9041;7.0555;-4.8009;-0.6888;9.5561;-2.1079;0.0133;3.2895;7.0237;2.6133;-4.1769;-0.9339;0.062;31.79;-12.26;18.51;183.41;-79.22;-41.09;0.0;1002.91;54.991;30.281075;-97.70938;483.6;532.9269256788153;;0.0;51.870968;;10 / 20;2926;2018-02-21 20:31:55:356
0.9041;7.0555;-4.8009;-0.6888;9.5561;-2.1079;-13.36;-45.3277;-3.53;2.6133;-4.1769;-0.9339;0.062;31.79;-12.26;18.51;44.95;-76.94;161.9;0.0;1002.91;54.991;30.281075;-97.70938;483.6;532.9269256788153;;0.0;51.870968;;10 / 20;2936;2018-02-21 20:31:55:366
0.9041;7.0555;-4.8009;-0.6888;9.5561;-2.1079;-13.36;-45.3277;-3.53;2.6133;-4.1769;-0.9339;0.062;31.79;-12.26;18.51;44.95;-76.94;161.9;0.0;1002.91;54.991;30.281075;-97.70938;483.6;532.9269256788153;;0.0;51.870968;;10 / 20;2946;2018-02-21 20:31:55:376
0.9041;7.0555;-4.8009;-0.6888;9.5561;-2.1079;-13.36;-45.3277;-3.53;2.6133;-4.1769;-0.9339;0.062;31.79;-12.26;18.51;44.95;-76.94;161.9;0.0;1002.91;54.991;30.281075;-97.70938;483.6;532.9269256788153;;0.0;51.870968;;10 / 20;2956;2018-02-21 20:31:55:386
0.9041;7.0555;-4.8009;-0.6888;9.5561;-2.1079;-13.36;-45.3277;-3.53;2.6133;-4.1769;-0.9339;0.062;31.79;-12.26;18.51;44.95;-76.94;161.9;0.0;1002.91;54.991;30.281075;-97.70938;483.6;532.9269256788153;;0.0;51.870968;;10 / 20;2965;2018-02-21 20:31:55:395
0.9041;7.0555;-4.8009;-0.6888;9.5561;-2.1079;-13.36;-45.3277;-3.53;2.6133;-4.1769;-0.9339;0.062;31.79;-12.26;18.51;44.95;-76.94;161.9;0.0;1002.77;54.991;30.281075;-97.70938;483.6;532.9269256788153;;0.0;51.870968;;10 / 20;2976;2018-02-21 20:31:55:406
0.9041;7.0555;-4.8009;-0.6888;9.5561;-2.1079;-13.36;-45.3277;-3.53;2.6133;-4.1769;-0.9339;0.062;31.79;-12.26;18.51;44.95;-76.94;161.9;0.0;1002.77;62.641;30.281075;-97.70938;483.6;532.9269256788153;;0.0;51.870968;;10 / 20;2985;2018-02-21 20:31:55:415
0.9041;7.0555;-4.8009;-0.6888;9.5561;-2.1079;-13.36;-45.3277;-3.53;2.6133;-4.1769;-0.9339;0.062;31.79;-12.26;18.51;44.95;-76.94;161.9;0.0;1002.77;62.641;30.281075;-97.70938;483.6;532.9269256788153;;0.0;51.870968;;10 / 20;2996;2018-02-21 20:31:55:426
11.93;54.6935;1.0663;-0.6888;9.5561;-2.1079;-13.36;-45.3277;-3.53;2.6133;-4.1769;-0.9339;0.062;31.79;-12.26;18.51;44.95;-76.94;161.9;0.0;1002.77;62.641;30.281075;-97.70938;483.6;532.9269256788153;;0.0;51.870968;;10 / 20;3006;2018-02-21 20:31:55:436
11.93;54.6935;1.0663;-0.6888;9.5561;-2.1079;-13.36;-45.3277;-3.53;2.6133;-4.1769;-0.9339;0.062;31.79;-12.26;18.51;44.95;-76.94;161.9;0.0;1002.77;62.641;30.281075;-97.70938;483.6;532.9269256788153;;0.0;51.870968;;10 / 20;3016;2018-02-21 20:31:55:446
11.93;54.6935;1.0663;-0.6888;9.5561;-2.1079;-13.36;-45.3277;-3.53;2.6133;-4.1769;-0.9339;0.062;31.79;-12.26;18.51;44.95;-76.94;161.9;0.0;1002.77;62.641;30.281075;-97.70938;483.6;532.9269256788153;;0.0;51.870968;;10 / 20;3026;2018-02-21 20:31:55:456
11.93;54.6935;1.0663;-0.8256;9.6184;-1.7436;-13.36;-45.3277;-3.53;2.6133;-4.1769;-0.9339;0.062;31.79;-12.26;18.51;44.95;-76.94;161.9;0.0;1002.77;62.641;30.281075;-97.70938;483.6;532.9269256788153;;0.0;51.870968;;10 / 20;3036;2018-02-21 20:31:55:466
11.93;54.6935;1.0663;-0.8256;9.6184;-1.7436;-13.36;-45.3277;-3.53;-0.5575;-3.0466;0.8509;0.062;32.84;-11.71;16.01;41.84;-78.66;154.66;0.0;1002.77;62.641;30.281075;-97.70938;483.6;532.9269256788153;;0.0;51.870968;;10 / 20;3046;2018-02-21 20:31:55:476
11.93;54.6935;1.0663;-0.8256;9.6184;-1.7436;5.2201;7.7986;-4.8901;-0.5575;-3.0466;0.8509;0.062;32.84;-11.71;16.01;41.84;-78.66;154.66;0.0;1002.77;62.641;30.281075;-97.70938;483.6;532.9269256788153;;0.0;51.870968;;10 / 20;3056;2018-02-21 20:31:55:486
11.93;54.6935;1.0663;-0.8256;9.6184;-1.7436;5.2201;7.7986;-4.8901;-0.5575;-3.0466;0.8509;0.062;32.84;-11.71;16.01;41.84;-78.66;154.66;0.0;1002.77;62.641;30.281075;-97.70938;483.6;532.9269256788153;;0.0;51.870968;;10 / 20;3065;2018-02-21 20:31:55:495
11.93;54.6935;1.0663;-0.8256;9.6184;-1.7436;5.2201;7.7986;-4.8901;-0.5575;-3.0466;0.8509;0.062;32.84;-11.71;16.01;41.84;-78.66;154.66;0.0;1002.77;62.641;30.281075;-97.70938;483.6;532.9269256788153;;0.0;51.870968;;10 / 20;3076;2018-02-21 20:31:55:506
11.93;54.6935;1.0663;-0.8256;9.6184;-1.7436;5.2201;7.7986;-4.8901;-0.5575;-3.0466;0.8509;0.062;32.84;-11.71;16.01;41.84;-78.66;154.66;0.0;1002.77;62.641;30.281075;-97.70938;483.6;532.9269256788153;;0.0;51.870968;;10 / 20;3085;2018-02-21 20:31:55:515
11.93;54.6935;1.0663;-0.8256;9.6184;-1.7436;5.2201;7.7986;-4.8901;-0.5575;-3.0466;0.8509;0.062;32.84;-11.71;16.01;41.84;-78.66;154.66;0.0;1002.77;62.641;30.281075;-97.70938;483.6;532.9269256788153;;0.0;51.870968;;10 / 20;3096;2018-02-21 20:31:55:526
11.93;54.6935;1.0663;-0.8256;9.6184;-1.7436;5.2201;7.7986;-4.8901;-0.5575;-3.0466;0.8509;0.062;32.84;-11.71;16.01;41.84;-78.66;154.66;0.0;1002.77;62.641;30.281075;-97.70938;483.6;532.9269256788153;;0.0;51.870968;;10 / 20;3106;2018-02-21 20:31:55:536
11.93;54.6935;1.0663;-0.8256;9.6184;-1.7436;5.2201;7.7986;-4.8901;-0.5575;-3.0466;0.8509;0.062;32.84;-11.71;16.01;41.84;-78.66;154.66;0.0;1002.77;62.641;30.281075;-97.70938;483.6;532.9269256788153;;0.0;51.870968;;10 / 20;3115;2018-02-21 20:31:55:545
11.93;54.6935;1.0663;-0.8256;9.6184;-1.7436;5.2201;7.7986;-4.8901;-0.5575;-3.0466;0.8509;0.062;32.84;-11.71;16.01;41.84;-78.66;154.66;0.0;1002.77;62.641;30.281075;-97.70938;483.6;532.9269256788153;;0.0;51.870968;;10 / 20;3126;2018-02-21 20:31:55:556
11.93;54.6935;1.0663;-0.8256;9.6184;-1.7436;5.2201;7.7986;-4.8901;-0.5575;-3.0466;0.8509;0.062;32.84;-11.71;16.01;41.84;-78.66;154.66;0.0;1002.77;62.641;30.281075;-97.70938;483.6;532.9269256788153;;0.0;51.870968;;10 / 20;3135;2018-02-21 20:31:55:565
-3.78;1.1092;-7.7023;-0.8256;9.6184;-1.7436;5.2201;7.7986;-4.8901;-0.5575;-3.0466;0.8509;0.062;32.84;-11.71;16.01;41.84;-78.66;154.66;0.0;1002.77;62.641;30.281075;-97.70938;483.6;532.9269256788153;;0.0;51.870968;;10 / 20;3146;2018-02-21 20:31:55:576
-3.78;1.1092;-7.7023;-2.0776;9.5591;0.7375;5.2201;7.7986;-4.8901;-0.5575;-3.0466;0.8509;0.062;32.84;-11.71;16.01;41.84;-78.66;154.66;0.0;1002.77;62.641;30.281075;-97.70938;483.6;532.9269256788153;;0.0;51.870968;;10 / 20;3156;2018-02-21 20:31:55:586
-3.78;1.1092;-7.7023;-2.0776;9.5591;0.7375;0.052;-8.6394;-8.9129;-0.9815;1.4826;-0.1092;0.062;35.84;-11.06;8.06;325.01;-77.01;70.46;0.0;1002.77;62.641;30.281075;-97.70938;483.6;532.9269256788153;;0.0;51.870968;;10 / 20;3166;2018-02-21 20:31:55:596
-3.78;1.1092;-7.7023;-2.0776;9.5591;0.7375;0.052;-8.6394;-8.9129;-0.9815;1.4826;-0.1092;0.062;35.84;-11.06;8.06;325.01;-77.01;70.46;0.0;1003.32;62.641;30.281075;-97.70938;483.6;532.9269256788153;;0.0;51.870968;;10 / 20;3176;2018-02-21 20:31:55:606
-3.78;1.1092;-7.7023;-2.0776;9.5591;0.7375;0.052;-8.6394;-8.9129;-0.9815;1.4826;-0.1092;0.062;35.84;-11.06;8.06;325.01;-77.01;70.46;0.0;1003.32;62.641;30.281075;-97.70938;483.6;532.9269256788153;;0.0;51.870968;;10 / 20;3185;2018-02-21 20:31:55:615
-3.78;1.1092;-7.7023;-2.0776;9.5591;0.7375;0.052;-8.6394;-8.9129;-0.9815;1.4826;-0.1092;0.062;35.84;-11.06;8.06;325.01;-77.01;70.46;0.0;1003.32;62.641;30.281075;-97.70938;483.6;532.9269256788153;;0.0;51.870968;;10 / 20;3196;2018-02-21 20:31:55:626
-3.78;1.1092;-7.7023;-2.0776;9.5591;0.7375;0.052;-8.6394;-8.9129;-0.9815;1.4826;-0.1092;0.062;35.84;-11.06;8.06;325.01;-77.01;70.46;0.0;1003.32;62.641;30.281075;-97.70938;483.6;532.9269256788153;;0.0;51.870968;;10 / 20;3206;2018-02-21 20:31:55:636
-3.78;1.1092;-7.7023;-2.0776;9.5591;0.7375;0.052;-8.6394;-8.9129;-0.9815;1.4826;-0.1092;0.062;35.84;-11.06;8.06;325.01;-77.01;70.46;0.0;1003.32;62.641;30.281075;-97.70938;483.6;532.9269256788153;;0.0;51.870968;;10 / 20;3216;2018-02-21 20:31:55:646
-3.78;1.1092;-7.7023;-2.0776;9.5591;0.7375;0.052;-8.6394;-8.9129;-0.9815;1.4826;-0.1092;0.062;35.84;-11.06;8.06;325.01;-77.01;70.46;0.0;1003.32;62.641;30.281075;-97.70938;483.6;532.9269256788153;;0.0;51.870968;;10 / 20;3226;2018-02-21 20:31:55:656
-3.78;1.1092;-7.7023;-2.0776;9.5591;0.7375;0.052;-8.6394;-8.9129;-0.9815;1.4826;-0.1092;0.062;35.84;-11.06;8.06;325.01;-77.01;70.46;0.0;1003.32;62.641;30.281075;-97.70938;483.6;532.9269256788153;;0.0;51.870968;;10 / 20;3235;2018-02-21 20:31:55:665
-3.78;1.1092;-7.7023;-2.0776;9.5591;0.7375;0.052;-8.6394;-8.9129;-0.9815;1.4826;-0.1092;0.062;35.84;-11.06;8.06;325.01;-77.01;70.46;0.0;1003.32;62.641;30.281075;-97.70938;483.6;532.9269256788153;;0.0;51.870968;;10 / 20;3246;2018-02-21 20:31:55:676
-3.78;1.1092;-7.7023;-2.0776;9.5591;0.7375;0.052;-8.6394;-8.9129;-0.9815;1.4826;-0.1092;0.062;35.84;-11.06;8.06;325.01;-77.01;70.46;0.0;1003.32;62.641;30.281075;-97.70938;483.6;532.9269256788153;;0.0;51.870968;;10 / 20;3255;2018-02-21 20:31:55:685
-3.78;1.1092;-7.7023;-2.0776;9.5591;0.7375;0.052;-8.6394;-8.9129;-0.9815;1.4826;-0.1092;0.062;35.84;-11.06;8.06;325.01;-77.01;70.46;0.0;1003.32;62.641;30.281075;-97.70938;483.6;532.9269256788153;;0.0;51.870968;;10 / 20;3266;2018-02-21 20:31:55:696
-4.4915;9.3456;1.611;-2.4217;9.3035;1.9537;0.052;-8.6394;-8.9129;-0.9815;1.4826;-0.1092;0.062;38.44;-9.91;3.06;311.4;-71.51;51.11;0.0;1003.32;62.641;30.281075;-97.70938;483.6;532.9269256788153;;0.0;51.870968;;10 / 20;3276;2018-02-21 20:31:55:706
-4.4915;9.3456;1.611;-2.4217;9.3035;1.9537;2.1735;-6.1339;-3.1797;-0.0079;0.5026;0.1411;0.062;38.44;-9.91;3.06;311.4;-71.51;51.11;0.0;1003.32;62.641;30.281075;-97.70938;483.6;532.9269256788153;;0.0;51.870968;;10 / 20;3285;2018-02-21 20:31:55:715
-4.4915;9.3456;1.611;-2.4217;9.3035;1.9537;2.1735;-6.1339;-3.1797;-0.0079;0.5026;0.1411;0.062;38.44;-9.91;3.06;311.4;-71.51;51.11;0.0;1003.32;62.641;30.281075;-97.70938;483.6;532.9269256788153;;0.0;51.870968;;10 / 20;3296;2018-02-21 20:31:55:726
-4.4915;9.3456;1.611;-2.4217;9.3035;1.9537;2.1735;-6.1339;-3.1797;-0.0079;0.5026;0.1411;0.062;38.44;-9.91;3.06;311.4;-71.51;51.11;0.0;1003.32;62.641;30.281075;-97.70938;483.6;532.9269256788153;;0.0;51.870968;;10 / 20;3306;2018-02-21 20:31:55:736
-4.4915;9.3456;1.611;-2.4217;9.3035;1.9537;2.1735;-6.1339;-3.1797;-0.0079;0.5026;0.1411;0.062;38.44;-9.91;3.06;311.4;-71.51;51.11;0.0;1003.32;45.97;30.281075;-97.70938;483.6;532.9269256788153;;0.0;51.870968;;10 / 20;3315;2018-02-21 20:31:55:745
-4.4915;9.3456;1.611;-2.4217;9.3035;1.9537;2.1735;-6.1339;-3.1797;-0.0079;0.5026;0.1411;0.062;38.44;-9.91;3.06;311.4;-71.51;51.11;0.0;1003.32;45.97;30.281075;-97.70938;483.6;532.9269256788153;;0.0;51.870968;;10 / 20;3326;2018-02-21 20:31:55:756
-4.4915;9.3456;1.611;-2.4217;9.3035;1.9537;2.1735;-6.1339;-3.1797;-0.0079;0.5026;0.1411;0.062;38.44;-9.91;3.06;311.4;-71.51;51.11;0.0;1003.32;45.97;30.281075;-97.70938;483.6;532.9269256788153;;0.0;51.870968;;10 / 20;3336;2018-02-21 20:31:55:766
-4.4915;9.3456;1.611;-2.4217;9.3035;1.9537;2.1735;-6.1339;-3.1797;-0.0079;0.5026;0.1411;0.062;38.44;-9.91;3.06;311.4;-71.51;51.11;0.0;1003.32;45.97;30.281075;-97.70938;483.6;532.9269256788153;;0.0;51.870968;;10 / 20;3346;2018-02-21 20:31:55:776
-4.4915;9.3456;1.611;-2.4217;9.3035;1.9537;2.1735;-6.1339;-3.1797;-0.0079;0.5026;0.1411;0.062;38.44;-9.91;3.06;311.4;-71.51;51.11;0.0;1003.32;45.97;30.281075;-97.70938;483.6;532.9269256788153;;0.0;51.870968;;10 / 20;3356;2018-02-21 20:31:55:786
-4.4915;9.3456;1.611;-2.4217;9.3035;1.9537;2.1735;-6.1339;-3.1797;-0.0079;0.5026;0.1411;0.062;38.44;-9.91;3.06;311.4;-71.51;51.11;0.0;1003.32;45.97;30.281075;-97.70938;483.6;532.9269256788153;;0.0;51.870968;;10 / 20;3365;2018-02-21 20:31:55:795
-4.4915;9.3456;1.611;-2.4217;9.3035;1.9537;2.1735;-6.1339;-3.1797;-0.0079;0.5026;0.1411;0.062;38.44;-9.91;3.06;311.4;-71.51;51.11;0.0;1003.35;45.97;30.281075;-97.70938;483.6;532.9269256788153;;0.0;51.870968;;10 / 20;3376;2018-02-21 20:31:55:806
-4.4915;9.3456;1.611;-2.4217;9.3035;1.9537;2.1735;-6.1339;-3.1797;-0.0079;0.5026;0.1411;0.062;36.54;-11.81;6.96;303.99;-71.51;51.11;0.0;1003.35;45.97;30.281075;-97.70938;483.6;532.9269256788153;;0.0;51.870968;;10 / 20;3386;2018-02-21 20:31:55:816
-4.4915;9.3456;1.611;-1.932;9.5778;0.8773;-4.1962;3.2239;4.5072;-0.0079;0.5026;0.1411;0.062;36.54;-11.81;6.96;303.99;-71.51;51.11;0.0;1003.35;45.97;30.281075;-97.70938;483.6;532.9269256788153;;0.0;51.870968;;10 / 20;3395;2018-02-21 20:31:55:825
-4.4915;9.3456;1.611;-1.932;9.5778;0.8773;-4.1962;3.2239;4.5072;1.0488;0.6738;0.6777;0.062;36.54;-11.81;6.96;303.99;-71.51;51.11;0.0;1003.35;45.97;30.281075;-97.70938;483.6;532.9269256788153;;0.0;51.870968;;10 / 20;3406;2018-02-21 20:31:55:836
0.7305;9.4086;-4.5226;-1.932;9.5778;0.8773;-4.1962;3.2239;4.5072;1.0488;0.6738;0.6777;0.062;36.54;-11.81;6.96;303.99;-71.51;51.11;0.0;1003.35;45.97;30.281075;-97.70938;483.6;532.9269256788153;;0.0;51.870968;;10 / 20;3415;2018-02-21 20:31:55:845
0.7305;9.4086;-4.5226;-1.932;9.5778;0.8773;-4.1962;3.2239;4.5072;1.0488;0.6738;0.6777;0.062;36.54;-11.81;6.96;303.99;-71.51;51.11;0.0;1003.35;45.97;30.281075;-97.70938;483.6;532.9269256788153;;0.0;51.870968;;10 / 20;3426;2018-02-21 20:31:55:856
0.7305;9.4086;-4.5226;-1.932;9.5778;0.8773;-4.1962;3.2239;4.5072;1.0488;0.6738;0.6777;0.062;36.54;-11.81;6.96;303.99;-71.51;51.11;0.0;1003.35;45.97;30.281075;-97.70938;483.6;532.9269256788153;;0.0;51.870968;;10 / 20;3435;2018-02-21 20:31:55:865
0.7305;9.4086;-4.5226;-1.932;9.5778;0.8773;-4.1962;3.2239;4.5072;1.0488;0.6738;0.6777;0.062;36.54;-11.81;6.96;303.99;-71.51;51.11;0.0;1003.35;45.97;30.281075;-97.70938;483.6;532.9269256788153;;0.0;51.870968;;10 / 20;3446;2018-02-21 20:31:55:876
0.7305;9.4086;-4.5226;-1.932;9.5778;0.8773;-4.1962;3.2239;4.5072;1.0488;0.6738;0.6777;0.062;36.54;-11.81;6.96;303.99;-71.51;51.11;0.0;1003.35;45.97;30.281075;-97.70938;483.6;532.9269256788153;;0.0;51.870968;;10 / 20;3455;2018-02-21 20:31:55:885
0.7305;9.4086;-4.5226;-1.932;9.5778;0.8773;-4.1962;3.2239;4.5072;1.0488;0.6738;0.6777;0.062;36.54;-11.81;6.96;303.99;-71.51;51.11;0.0;1003.35;45.97;30.281075;-97.70938;483.6;532.9269256788153;;0.0;51.870968;;10 / 20;3465;2018-02-21 20:31:55:895
0.7305;9.4086;-4.5226;-1.932;9.5778;0.8773;-4.1962;3.2239;4.5072;1.0488;0.6738;0.6777;0.062;36.54;-11.81;6.96;303.99;-71.51;51.11;0.0;1003.35;45.97;30.281075;-97.70938;483.6;532.9269256788153;;0.0;51.870968;;10 / 20;3476;2018-02-21 20:31:55:906
0.7305;9.4086;-4.5226;-1.932;9.5778;0.8773;-4.1962;3.2239;4.5072;1.0488;0.6738;0.6777;0.062;36.54;-11.81;6.96;303.99;-71.51;51.11;0.0;1003.35;45.97;30.281075;-97.70938;483.6;532.9269256788153;;0.0;51.870968;;10 / 20;3486;2018-02-21 20:31:55:916
0.7305;9.4086;-4.5226;-1.932;9.5778;0.8773;-4.1962;3.2239;4.5072;1.0488;0.6738;0.6777;0.062;36.54;-11.81;6.96;303.99;-71.51;51.11;0.0;1003.35;45.97;30.281075;-97.70938;483.6;532.9269256788153;;0.0;51.870968;;10 / 20;3496;2018-02-21 20:31:55:926
0.7305;9.4086;-4.5226;-1.932;9.5778;0.8773;-4.1962;3.2239;4.5072;1.0488;0.6738;0.6777;0.062;31.94;-11.01;18.01;302.41;-77.51;65.58;0.0;1003.35;45.97;30.281075;-97.70938;483.6;532.9269256788153;;0.0;51.870968;;10 / 20;3505;2018-02-21 20:31:55:935
0.7305;9.4086;-4.5226;-1.932;9.5778;0.8773;0.118;1.3476;-2.6979;1.0488;0.6738;0.6777;0.062;31.94;-11.01;18.01;302.41;-77.51;65.58;0.0;1003.35;45.97;30.281075;-97.70938;483.6;532.9269256788153;;0.0;51.870968;;10 / 20;3516;2018-02-21 20:31:55:946
0.7305;9.4086;-4.5226;-1.0526;9.1775;-3.3018;0.118;1.3476;-2.6979;1.0488;0.6738;0.6777;0.062;31.94;-11.01;18.01;302.41;-77.51;65.58;0.0;1003.35;45.97;30.281075;-97.70938;483.6;532.9269256788153;;0.0;51.870968;;10 / 20;3525;2018-02-21 20:31:55:955
0.7305;9.4086;-4.5226;-1.0526;9.1775;-3.3018;0.118;1.3476;-2.6979;3.9504;-0.2726;0.6867;0.062;31.94;-11.01;18.01;302.41;-77.51;65.58;0.0;1003.35;45.97;30.281075;-97.70938;483.6;532.9269256788153;;0.0;51.870968;;10 / 20;3536;2018-02-21 20:31:55:966
0.7305;9.4086;-4.5226;-1.0526;9.1775;-3.3018;0.118;1.3476;-2.6979;3.9504;-0.2726;0.6867;0.062;31.94;-11.01;18.01;302.41;-77.51;65.58;0.0;1003.35;45.97;30.281075;-97.70938;483.6;532.9269256788153;;0.0;51.870968;;10 / 20;3545;2018-02-21 20:31:55:975
-2.8986;4.175;-2.1181;-1.0526;9.1775;-3.3018;0.118;1.3476;-2.6979;3.9504;-0.2726;0.6867;0.062;31.94;-11.01;18.01;302.41;-77.51;65.58;0.0;1003.35;45.97;30.281075;-97.70938;483.6;532.9269256788153;;0.0;51.870968;;10 / 20;3556;2018-02-21 20:31:55:986
-2.8986;4.175;-2.1181;-1.0526;9.1775;-3.3018;0.118;1.3476;-2.6979;3.9504;-0.2726;0.6867;0.062;31.94;-11.01;18.01;302.41;-77.51;65.58;0.0;1003.35;45.97;30.281075;-97.70938;483.6;532.9269256788153;;0.0;51.870968;;10 / 20;3566;2018-02-21 20:31:55:996
-2.8986;4.175;-2.1181;-1.0526;9.1775;-3.3018;0.118;1.3476;-2.6979;3.9504;-0.2726;0.6867;0.062;31.94;-11.01;18.01;302.41;-77.51;65.58;0.0;1003.3;45.97;30.281075;-97.70938;483.6;532.9269256788153;;0.0;51.870968;;10 / 20;3576;2018-02-21 20:31:56:006
-2.8986;4.175;-2.1181;-1.0526;9.1775;-3.3018;0.118;1.3476;-2.6979;3.9504;-0.2726;0.6867;0.062;31.94;-11.01;18.01;302.41;-77.51;65.58;0.0;1003.3;45.97;30.281075;-97.70938;483.6;532.9269256788153;;0.0;51.870968;;10 / 20;3585;2018-02-21 20:31:56:015
-2.8986;4.175;-2.1181;-1.0526;9.1775;-3.3018;0.118;1.3476;-2.6979;3.9504;-0.2726;0.6867;0.062;31.94;-11.01;18.01;302.41;-77.51;65.58;0.0;1003.3;45.97;30.281075;-97.70938;483.6;532.9269256788153;;0.0;51.870968;;10 / 20;3596;2018-02-21 20:31:56:026
-2.8986;4.175;-2.1181;-1.0526;9.1775;-3.3018;0.118;1.3476;-2.6979;3.9504;-0.2726;0.6867;0.062;31.94;-11.01;18.01;302.41;-77.51;65.58;0.0;1003.3;45.97;30.281075;-97.70938;483.6;532.9269256788153;;0.0;51.870968;;10 / 20;3605;2018-02-21 20:31:56:035
-2.8986;4.175;-2.1181;-1.0526;9.1775;-3.3018;0.118;1.3476;-2.6979;3.9504;-0.2726;0.6867;0.062;31.94;-11.01;18.01;302.41;-77.51;65.58;0.0;1003.3;45.97;30.281075;-97.70938;483.6;532.9269256788153;;0.0;51.870968;;10 / 20;3615;2018-02-21 20:31:56:045
-2.8986;4.175;-2.1181;-1.0526;9.1775;-3.3018;2.6355;-1.5953;-0.5752;3.9504;-0.2726;0.6867;0.062;29.04;-5.51;28.31;31.61;-69.31;162.32;0.0;1003.3;45.97;30.281075;-97.70938;483.6;532.9269256788153;;0.0;51.870968;;10 / 20;3626;2018-02-21 20:31:56:056
-2.8986;4.175;-2.1181;-1.0526;9.1775;-3.3018;2.6355;-1.5953;-0.5752;3.9504;-0.2726;0.6867;0.062;29.04;-5.51;28.31;31.61;-69.31;162.32;0.0;1003.3;50.148;30.281075;-97.70938;483.6;532.9269256788153;;0.0;51.870968;;10 / 20;3636;2018-02-21 20:31:56:066
-2.8986;4.175;-2.1181;0.4952;8.3932;-5.0542;2.6355;-1.5953;-0.5752;3.9504;-0.2726;0.6867;0.062;29.04;-5.51;28.31;31.61;-69.31;162.32;0.0;1003.3;50.148;30.281075;-97.70938;483.6;532.9269256788153;;0.0;51.870968;;10 / 20;3646;2018-02-21 20:31:56:076
-2.8986;4.175;-2.1181;0.4952;8.3932;-5.0542;2.6355;-1.5953;-0.5752;-0.1158;-1.4413;1.7937;0.062;29.04;-5.51;28.31;31.61;-69.31;162.32;0.0;1003.3;50.148;30.281075;-97.70938;483.6;532.9269256788153;;0.0;51.870968;;10 / 20;3656;2018-02-21 20:31:56:086
-2.8986;4.175;-2.1181;0.4952;8.3932;-5.0542;2.6355;-1.5953;-0.5752;-0.1158;-1.4413;1.7937;0.062;29.04;-5.51;28.31;31.61;-69.31;162.32;0.0;1003.3;50.148;30.281075;-97.70938;483.6;532.9269256788153;;0.0;51.870968;;10 / 20;3666;2018-02-21 20:31:56:096
-2.8986;4.175;-2.1181;0.4952;8.3932;-5.0542;2.6355;-1.5953;-0.5752;-0.1158;-1.4413;1.7937;0.062;29.04;-5.51;28.31;31.61;-69.31;162.32;0.0;1003.3;50.148;30.281075;-97.70938;483.6;532.9269256788153;;0.0;51.870968;;10 / 20;3675;2018-02-21 20:31:56:105
-2.8986;4.175;-2.1181;0.4952;8.3932;-5.0542;2.6355;-1.5953;-0.5752;-0.1158;-1.4413;1.7937;0.062;29.04;-5.51;28.31;31.61;-69.31;162.32;0.0;1003.3;50.148;30.281075;-97.70938;483.6;532.9269256788153;;0.0;51.870968;;10 / 20;3686;2018-02-21 20:31:56:116
-2.3105;9.8718;-4.697;0.4952;8.3932;-5.0542;2.6355;-1.5953;-0.5752;-0.1158;-1.4413;1.7937;0.062;29.04;-5.51;28.31;31.61;-69.31;162.32;0.0;1003.3;50.148;30.281075;-97.70938;483.6;532.9269256788153;;0.0;51.870968;;10 / 20;3695;2018-02-21 20:31:56:125
-2.3105;9.8718;-4.697;0.4952;8.3932;-5.0542;2.6355;-1.5953;-0.5752;-0.1158;-1.4413;1.7937;0.062;29.04;-5.51;28.31;31.61;-69.31;162.32;0.0;1003.3;50.148;30.281075;-97.70938;483.6;532.9269256788153;;0.0;51.870968;;10 / 20;3706;2018-02-21 20:31:56:136
-2.3105;9.8718;-4.697;0.4952;8.3932;-5.0542;2.6355;-1.5953;-0.5752;-0.1158;-1.4413;1.7937;0.062;29.04;-5.51;28.31;31.61;-69.31;162.32;0.0;1003.3;50.148;30.281075;-97.70938;483.6;532.9269256788153;;0.0;51.870968;;10 / 20;3715;2018-02-21 20:31:56:145
-2.3105;9.8718;-4.697;0.4952;8.3932;-5.0542;2.6355;-1.5953;-0.5752;-0.1158;-1.4413;1.7937;0.062;29.04;-5.51;28.31;31.61;-69.31;162.32;0.0;1003.3;50.148;30.281075;-97.70938;483.6;532.9269256788153;;0.0;51.870968;;10 / 20;3726;2018-02-21 20:31:56:156
-2.3105;9.8718;-4.697;0.4952;8.3932;-5.0542;2.6355;-1.5953;-0.5752;-0.1158;-1.4413;1.7937;0.062;28.29;-10.41;24.06;66.84;-58.82;-174.4;0.0;1003.3;50.148;30.281075;-97.70938;483.6;532.9269256788153;;0.0;51.870968;;10 / 20;3736;2018-02-21 20:31:56:166
-2.3105;9.8718;-4.697;0.4952;8.3932;-5.0542;4.369;11.3678;-4.626;-0.1158;-1.4413;1.7937;0.062;28.29;-10.41;24.06;66.84;-58.82;-174.4;0.0;1003.3;50.148;30.281075;-97.70938;483.6;532.9269256788153;;0.0;51.870968;;10 / 20;3746;2018-02-21 20:31:56:176
-2.3105;9.8718;-4.697;0.4952;8.3932;-5.0542;4.369;11.3678;-4.626;-0.1158;-1.4413;1.7937;0.062;28.29;-10.41;24.06;66.84;-58.82;-174.4;0.0;1003.3;50.148;30.281075;-97.70938;483.6;532.9269256788153;;0.0;51.870968;;10 / 20;3756;2018-02-21 20:31:56:186
-2.3105;9.8718;-4.697;0.4952;8.3932;-5.0542;4.369;11.3678;-4.626;-0.1158;-1.4413;1.7937;0.062;28.29;-10.41;24.06;66.84;-58.82;-174.4;0.0;1003.3;50.148;30.281075;-97.70938;483.6;532.9269256788153;;0.0;51.870968;;10 / 20;3765;2018-02-21 20:31:56:195
-2.3105;9.8718;-4.697;-0.2496;9.7975;-0.4282;4.369;11.3678;-4.626;-0.1158;-1.4413;1.7937;0.062;28.29;-10.41;24.06;66.84;-58.82;-174.4;0.0;1003.43;50.148;30.281075;-97.70938;483.6;532.9269256788153;;0.0;51.870968;;10 / 20;3776;2018-02-21 20:31:56:206
-2.3105;9.8718;-4.697;-0.2496;9.7975;-0.4282;4.369;11.3678;-4.626;-4.3758;3.3539;-2.1175;0.001;28.29;-10.41;24.06;66.84;-58.82;-174.4;0.0;1003.43;50.148;30.281075;-97.70938;483.6;532.9269256788153;;0.0;51.870968;;10 / 20;3786;2018-02-21 20:31:56:216
-2.3105;9.8718;-4.697;-0.2496;9.7975;-0.4282;4.369;11.3678;-4.626;-4.3758;3.3539;-2.1175;0.001;28.29;-10.41;24.06;66.84;-58.82;-174.4;0.0;1003.43;50.148;30.281075;-97.70938;483.6;532.9269256788153;;0.0;51.870968;;10 / 20;3795;2018-02-21 20:31:56:225
-2.3105;9.8718;-4.697;-0.2496;9.7975;-0.4282;4.369;11.3678;-4.626;-4.3758;3.3539;-2.1175;0.001;28.29;-10.41;24.06;66.84;-58.82;-174.4;0.0;1003.43;50.148;30.281075;-97.70938;483.6;532.9269256788153;;0.0;51.870968;;10 / 20;3806;2018-02-21 20:31:56:236
-2.3105;9.8718;-4.697;-0.2496;9.7975;-0.4282;4.369;11.3678;-4.626;-4.3758;3.3539;-2.1175;0.001;28.29;-10.41;24.06;66.84;-58.82;-174.4;0.0;1003.43;50.148;30.281075;-97.70938;483.6;532.9269256788153;;0.0;51.870968;;10 / 20;3815;2018-02-21 20:31:56:245
-2.3105;9.8718;-4.697;-0.2496;9.7975;-0.4282;4.369;11.3678;-4.626;-4.3758;3.3539;-2.1175;0.001;28.29;-10.41;24.06;66.84;-58.82;-174.4;0.0;1003.43;50.148;30.281075;-97.70938;483.6;532.9269256788153;;0.0;51.870968;;10 / 20;3826;2018-02-21 20:31:56:256
-4.5633;0.3526;-4.8081;-0.2496;9.7975;-0.4282;4.369;11.3678;-4.626;-4.3758;3.3539;-2.1175;0.001;28.29;-10.41;24.06;66.84;-58.82;-174.4;0.0;1003.43;50.148;30.281075;-97.70938;483.6;532.9269256788153;;0.0;51.870968;;10 / 20;3836;2018-02-21 20:31:56:266
-4.5633;0.3526;-4.8081;-0.2496;9.7975;-0.4282;4.369;11.3678;-4.626;-4.3758;3.3539;-2.1175;0.001;28.29;-10.41;24.06;66.84;-58.82;-174.4;0.0;1003.43;50.148;30.281075;-97.70938;483.6;532.9269256788153;;0.0;51.870968;;10 / 20;3845;2018-02-21 20:31:56:275
-4.5633;0.3526;-4.8081;-0.2496;9.7975;-0.4282;-5.3729;-2.8144;-4.3494;-4.3758;3.3539;-2.1175;0.001;31.99;-13.61;12.56;38.42;-87.1;149.76;0.0;1003.43;50.148;30.281075;-97.70938;483.6;532.9269256788153;;0.0;51.870968;;10 / 20;3855;2018-02-21 20:31:56:285
-4.5633;0.3526;-4.8081;-0.2496;9.7975;-0.4282;-5.3729;-2.8144;-4.3494;-4.3758;3.3539;-2.1175;0.001;31.99;-13.61;12.56;38.42;-87.1;149.76;0.0;1003.43;50.148;30.281075;-97.70938;483.6;532.9269256788153;;0.0;51.870968;;10 / 20;3866;2018-02-21 20:31:56:296
-4.5633;0.3526;-4.8081;-0.2496;9.7975;-0.4282;-5.3729;-2.8144;-4.3494;-4.3758;3.3539;-2.1175;0.001;31.99;-13.61;12.56;38.42;-87.1;149.76;0.0;1003.43;50.148;30.281075;-97.70938;483.6;532.9269256788153;;0.0;51.870968;;10 / 20;3876;2018-02-21 20:31:56:306
-4.5633;0.3526;-4.8081;-0.2496;9.7975;-0.4282;-5.3729;-2.8144;-4.3494;-4.3758;3.3539;-2.1175;0.001;31.99;-13.61;12.56;38.42;-87.1;149.76;0.0;1003.43;50.148;30.281075;-97.70938;483.6;532.9269256788153;;0.0;51.870968;;10 / 20;3886;2018-02-21 20:31:56:316
-4.5633;0.3526;-4.8081;-1.3216;9.5394;1.8681;-5.3729;-2.8144;-4.3494;-4.3758;3.3539;-2.1175;0.001;31.99;-13.61;12.56;38.42;-87.1;149.76;0.0;1003.43;50.148;30.281075;-97.70938;483.6;532.9269256788153;;0.0;51.870968;;10 / 20;3896;2018-02-21 20:31:56:326
-4.5633;0.3526;-4.8081;-1.3216;9.5394;1.8681;-5.3729;-2.8144;-4.3494;-1.6292;1.2691;0.3698;0.001;31.99;-13.61;12.56;38.42;-87.1;149.76;0.0;1003.43;50.148;30.281075;-97.70938;483.6;532.9269256788153;;0.0;51.870968;;10 / 20;3905;2018-02-21 20:31:56:335
-4.5633;0.3526;-4.8081;-1.3216;9.5394;1.8681;-5.3729;-2.8144;-4.3494;-1.6292;1.2691;0.3698;0.001;31.99;-13.61;12.56;38.42;-87.1;149.76;0.0;1003.43;50.148;30.281075;-97.70938;483.6;532.9269256788153;;0.0;51.870968;;10 / 20;3916;2018-02-21 20:31:56:346
-4.5633;0.3526;-4.8081;-1.3216;9.5394;1.8681;-5.3729;-2.8144;-4.3494;-1.6292;1.2691;0.3698;0.001;31.99;-13.61;12.56;38.42;-87.1;149.76;0.0;1003.43;50.148;30.281075;-97.70938;483.6;532.9269256788153;;0.0;51.870968;;10 / 20;3925;2018-02-21 20:31:56:355
-4.5633;0.3526;-4.8081;-1.3216;9.5394;1.8681;-5.3729;-2.8144;-4.3494;-1.6292;1.2691;0.3698;0.001;31.99;-13.61;12.56;38.42;-87.1;149.76;0.0;1003.43;50.148;30.281075;-97.70938;483.6;532.9269256788153;;0.0;51.870968;;10 / 20;3936;2018-02-21 20:31:56:366
-4.5633;0.3526;-4.8081;-1.3216;9.5394;1.8681;-5.3729;-2.8144;-4.3494;-1.6292;1.2691;0.3698;0.001;31.99;-13.61;12.56;38.42;-87.1;149.76;0.0;1003.43;50.148;30.281075;-97.70938;483.6;532.9269256788153;;0.0;51.870968;;10 / 20;3945;2018-02-21 20:31:56:375
-4.5633;0.3526;-4.8081;-1.3216;9.5394;1.8681;-5.3729;-2.8144;-4.3494;-1.6292;1.2691;0.3698;0.001;31.99;-13.61;12.56;38.42;-87.1;149.76;0.0;1003.43;50.742;30.281075;-97.70938;483.6;532.9269256788153;;0.0;51.870968;;10 / 20;3955;2018-02-21 20:31:56:385
-4.5633;0.3526;-4.8081;-1.3216;9.5394;1.8681;-5.3729;-2.8144;-4.3494;-1.6292;1.2691;0.3698;0.001;31.89;-14.91;8.06;284.8;-76.51;35.28;0.0;1003.43;50.742;30.281075;-97.70938;483.6;532.9269256788153;;0.0;51.870968;;10 / 20;3966;2018-02-21 20:31:56:396
-5.8065;18.2401;-1.5961;-1.3216;9.5394;1.8681;-2.0269;-8.3389;1.6244;-1.6292;1.2691;0.3698;0.001;31.89;-14.91;8.06;284.8;-76.51;35.28;0.0;1003.34;50.742;30.281075;-97.70938;483.6;532.9269256788153;;0.0;51.870968;;10 / 20;3976;2018-02-21 20:31:56:406
-5.8065;18.2401;-1.5961;-1.3216;9.5394;1.8681;-2.0269;-8.3389;1.6244;-1.6292;1.2691;0.3698;0.001;31.89;-14.91;8.06;284.8;-76.51;35.28;0.0;1003.34;50.742;30.281075;-97.70938;483.6;532.9269256788153;;0.0;51.870968;;10 / 20;3985;2018-02-21 20:31:56:415
-5.8065;18.2401;-1.5961;-1.3216;9.5394;1.8681;-2.0269;-8.3389;1.6244;-1.6292;1.2691;0.3698;0.001;31.89;-14.91;8.06;284.8;-76.51;35.28;0.0;1003.34;50.742;30.281075;-97.70938;483.6;532.9269256788153;;0.0;51.870968;;10 / 20;3996;2018-02-21 20:31:56:426
-5.8065;18.2401;-1.5961;-1.3216;9.5394;1.8681;-2.0269;-8.3389;1.6244;-1.6292;1.2691;0.3698;0.001;31.89;-14.91;8.06;284.8;-76.51;35.28;0.0;1003.34;50.742;30.281075;-97.70938;483.6;532.9269256788153;;0.0;51.870968;;10 / 20;4006;2018-02-21 20:31:56:436
-5.8065;18.2401;-1.5961;-1.3216;9.5394;1.8681;-2.0269;-8.3389;1.6244;-1.6292;1.2691;0.3698;0.001;31.89;-14.91;8.06;284.8;-76.51;35.28;0.0;1003.34;50.742;30.281075;-97.70938;483.6;532.9269256788153;;0.0;51.870968;;10 / 20;4015;2018-02-21 20:31:56:445
-5.8065;18.2401;-1.5961;-0.5635;9.7934;-0.0915;-2.0269;-8.3389;1.6244;-1.6292;1.2691;0.3698;0.001;31.89;-14.91;8.06;284.8;-76.51;35.28;0.0;1003.34;50.742;30.281075;-97.70938;483.6;532.9269256788153;;0.0;51.870968;;10 / 20;4026;2018-02-21 20:31:56:456
-5.8065;18.2401;-1.5961;-0.5635;9.7934;-0.0915;-2.0269;-8.3389;1.6244;2.3244;1.7049;1.6937;0.001;31.89;-14.91;8.06;284.8;-76.51;35.28;0.0;1003.34;50.742;30.281075;-97.70938;483.6;532.9269256788153;;0.0;51.870968;;10 / 20;4036;2018-02-21 20:31:56:466
-5.8065;18.2401;-1.5961;-0.5635;9.7934;-0.0915;-2.0269;-8.3389;1.6244;2.3244;1.7049;1.6937;0.001;31.89;-14.91;8.06;284.8;-76.51;35.28;0.0;1003.34;50.742;30.281075;-97.70938;483.6;532.9269256788153;;0.0;51.870968;;10 / 20;4046;2018-02-21 20:31:56:476
-5.8065;18.2401;-1.5961;-0.5635;9.7934;-0.0915;-2.0269;-8.3389;1.6244;2.3244;1.7049;1.6937;0.001;31.89;-14.91;8.06;284.8;-76.51;35.28;0.0;1003.34;50.742;30.281075;-97.70938;483.6;532.9269256788153;;0.0;51.870968;;10 / 20;4056;2018-02-21 20:31:56:486
-5.8065;18.2401;-1.5961;-0.5635;9.7934;-0.0915;-2.0269;-8.3389;1.6244;2.3244;1.7049;1.6937;0.001;31.89;-14.91;8.06;284.8;-76.51;35.28;0.0;1003.34;50.742;30.281075;-97.70938;483.6;532.9269256788153;;0.0;51.870968;;10 / 20;4066;2018-02-21 20:31:56:496
-5.8065;18.2401;-1.5961;-0.5635;9.7934;-0.0915;-2.0269;-8.3389;1.6244;2.3244;1.7049;1.6937;0.001;31.89;-14.91;8.06;284.8;-76.51;35.28;0.0;1003.34;50.742;30.281075;-97.70938;483.6;532.9269256788153;;0.0;51.870968;;10 / 20;4076;2018-02-21 20:31:56:506
-5.8065;18.2401;-1.5961;-0.5635;9.7934;-0.0915;4.268;4.2314;-4.2413;2.3244;1.7049;1.6937;0.001;25.09;-13.41;20.56;328.45;-86.66;99.22;0.0;1003.34;50.742;30.281075;-97.70938;483.6;532.9269256788153;;0.0;51.870968;;10 / 20;4086;2018-02-21 20:31:56:516
-5.8065;18.2401;-1.5961;-0.5635;9.7934;-0.0915;4.268;4.2314;-4.2413;2.3244;1.7049;1.6937;0.001;25.09;-13.41;20.56;328.45;-86.66;99.22;0.0;1003.34;50.742;30.281075;-97.70938;483.6;532.9269256788153;;0.0;51.870968;;10 / 20;4096;2018-02-21 20:31:56:526
-5.8065;18.2401;-1.5961;-0.5635;9.7934;-0.0915;4.268;4.2314;-4.2413;2.3244;1.7049;1.6937;0.001;25.09;-13.41;20.56;328.45;-86.66;99.22;0.0;1003.34;50.742;30.281075;-97.70938;483.6;532.9269256788153;;0.0;51.870968;;10 / 20;4106;2018-02-21 20:31:56:536
0.1711;9.4656;-13.6198;-0.5635;9.7934;-0.0915;4.268;4.2314;-4.2413;2.3244;1.7049;1.6937;0.001;25.09;-13.41;20.56;328.45;-86.66;99.22;0.0;1003.34;50.742;30.281075;-97.70938;483.6;532.9269256788153;;0.0;51.870968;;10 / 20;4115;2018-02-21 20:31:56:545
0.1711;9.4656;-13.6198;-0.5635;9.7934;-0.0915;4.268;4.2314;-4.2413;2.3244;1.7049;1.6937;0.001;25.09;-13.41;20.56;328.45;-86.66;99.22;0.0;1003.34;50.742;30.281075;-97.70938;483.6;532.9269256788153;;0.0;51.870968;;10 / 20;4126;2018-02-21 20:31:56:556
0.1711;9.4656;-13.6198;-0.5635;9.7934;-0.0915;4.268;4.2314;-4.2413;2.3244;1.7049;1.6937;0.001;25.09;-13.41;20.56;328.45;-86.66;99.22;0.0;1003.34;50.742;30.281075;-97.70938;483.6;532.9269256788153;;0.0;51.870968;;10 / 20;4135;2018-02-21 20:31:56:565
0.1711;9.4656;-13.6198;0.5228;7.8518;-5.8576;4.268;4.2314;-4.2413;2.3244;1.7049;1.6937;0.001;25.09;-13.41;20.56;328.45;-86.66;99.22;0.0;1003.34;50.742;30.281075;-97.70938;483.6;532.9269256788153;;0.0;51.870968;;10 / 20;4146;2018-02-21 20:31:56:576
0.1711;9.4656;-13.6198;0.5228;7.8518;-5.8576;4.268;4.2314;-4.2413;4.4913;-2.0875;1.0119;0.001;25.09;-13.41;20.56;328.45;-86.66;99.22;0.0;1003.34;50.742;30.281075;-97.70938;483.6;532.9269256788153;;0.0;51.870968;;10 / 20;4156;2018-02-21 20:31:56:586
0.1711;9.4656;-13.6198;0.5228;7.8518;-5.8576;4.268;4.2314;-4.2413;4.4913;-2.0875;1.0119;0.001;25.09;-13.41;20.56;328.45;-86.66;99.22;0.0;1003.34;50.742;30.281075;-97.70938;483.6;532.9269256788153;;0.0;51.870968;;10 / 20;4165;2018-02-21 20:31:56:595
0.1711;9.4656;-13.6198;0.5228;7.8518;-5.8576;4.268;4.2314;-4.2413;4.4913;-2.0875;1.0119;0.001;25.09;-13.41;20.56;328.45;-86.66;99.22;0.0;1002.97;50.742;30.281075;-97.70938;483.6;532.9269256788153;;0.0;51.870968;;10 / 20;4176;2018-02-21 20:31:56:606
0.1711;9.4656;-13.6198;0.5228;7.8518;-5.8576;4.268;4.2314;-4.2413;4.4913;-2.0875;1.0119;0.001;25.09;-13.41;20.56;328.45;-86.66;99.22;0.0;1002.97;50.742;30.281075;-97.70938;483.6;532.9269256788153;;0.0;51.870968;;10 / 20;4186;2018-02-21 20:31:56:616
0.1711;9.4656;-13.6198;0.5228;7.8518;-5.8576;4.268;4.2314;-4.2413;4.4913;-2.0875;1.0119;0.001;25.44;1.49;34.11;47.12;-53.17;-174.9;0.0;1002.97;50.742;30.281075;-97.70938;483.6;532.9269256788153;;0.0;51.870968;;10 / 20;4196;2018-02-21 20:31:56:626
0.1711;9.4656;-13.6198;0.5228;7.8518;-5.8576;-5.5296;-8.5365;0.2627;4.4913;-2.0875;1.0119;0.001;25.44;1.49;34.11;47.12;-53.17;-174.9;0.0;1002.97;50.742;30.281075;-97.70938;483.6;532.9269256788153;;0.0;51.870968;;10 / 20;4206;2018-02-21 20:31:56:636
0.1711;9.4656;-13.6198;0.5228;7.8518;-5.8576;-5.5296;-8.5365;0.2627;4.4913;-2.0875;1.0119;0.001;25.44;1.49;34.11;47.12;-53.17;-174.9;0.0;1002.97;50.742;30.281075;-97.70938;483.6;532.9269256788153;;0.0;51.870968;;10 / 20;4216;2018-02-21 20:31:56:646
0.1711;9.4656;-13.6198;0.5228;7.8518;-5.8576;-5.5296;-8.5365;0.2627;4.4913;-2.0875;1.0119;0.001;25.44;1.49;34.11;47.12;-53.17;-174.9;0.0;1002.97;50.742;30.281075;-97.70938;483.6;532.9269256788153;;0.0;51.870968;;10 / 20;4226;2018-02-21 20:31:56:656
0.1711;9.4656;-13.6198;0.5228;7.8518;-5.8576;-5.5296;-8.5365;0.2627;4.4913;-2.0875;1.0119;0.001;25.44;1.49;34.11;47.12;-53.17;-174.9;0.0;1002.97;50.742;30.281075;-97.70938;483.6;532.9269256788153;;0.0;51.870968;;10 / 20;4235;2018-02-21 20:31:56:665
-5.3095;18.2437;0.3007;0.5228;7.8518;-5.8576;-5.5296;-8.5365;0.2627;4.4913;-2.0875;1.0119;0.001;25.44;1.49;34.11;47.12;-53.17;-174.9;0.0;1002.97;50.742;30.281075;-97.70938;483.6;532.9269256788153;;0.0;51.870968;;10 / 20;4246;2018-02-21 20:31:56:676
-5.3095;18.2437;0.3007;0.5228;7.8518;-5.8576;-5.5296;-8.5365;0.2627;4.4913;-2.0875;1.0119;0.001;25.44;1.49;34.11;47.12;-53.17;-174.9;0.0;1002.97;50.742;30.281075;-97.70938;483.6;532.9269256788153;;0.0;51.870968;;10 / 20;4255;2018-02-21 20:31:56:685
-5.3095;18.2437;0.3007;0.5228;7.8518;-5.8576;-5.5296;-8.5365;0.2627;4.4913;-2.0875;1.0119;0.001;25.44;1.49;34.11;47.12;-53.17;-174.9;0.0;1002.97;50.742;30.281075;-97.70938;483.6;532.9269256788153;;0.0;51.870968;;10 / 20;4266;2018-02-21 20:31:56:696
-5.3095;18.2437;0.3007;0.0753;7.0643;-6.8063;-5.5296;-8.5365;0.2627;4.4913;-2.0875;1.0119;0.001;25.44;1.49;34.11;47.12;-53.17;-174.9;0.0;1002.97;50.742;30.281075;-97.70938;483.6;532.9269256788153;;0.0;51.870968;;10 / 20;4275;2018-02-21 20:31:56:705
-5.3095;18.2437;0.3007;0.0753;7.0643;-6.8063;-5.5296;-8.5365;0.2627;-1.9655;-0.4463;1.0304;0.001;25.44;1.49;34.11;47.12;-53.17;-174.9;0.0;1002.97;48.627;30.281075;-97.70938;483.6;532.9269256788153;;0.0;51.870968;;10 / 20;4286;2018-02-21 20:31:56:716
-5.3095;18.2437;0.3007;0.0753;7.0643;-6.8063;-5.5296;-8.5365;0.2627;-1.9655;-0.4463;1.0304;0.001;25.44;1.49;34.11;47.12;-53.17;-174.9;0.0;1002.97;48.627;30.281075;-97.70938;483.6;532.9269256788153;;0.0;51.870968;;10 / 20;4296;2018-02-21 20:31:56:726
-5.3095;18.2437;0.3007;0.0753;7.0643;-6.8063;-5.5296;-8.5365;0.2627;-1.9655;-0.4463;1.0304;0.001;25.44;1.49;34.11;47.12;-53.17;-174.9;0.0;1002.97;48.627;30.281075;-97.70938;483.6;532.9269256788153;;0.0;51.870968;;10 / 20;4306;2018-02-21 20:31:56:736
-5.3095;18.2437;0.3007;0.0753;7.0643;-6.8063;3.6267;2.045;-10.0523;-1.9655;-0.4463;1.0304;0.001;26.74;1.04;34.11;47.64;-46.06;-179.37;0.0;1002.97;48.627;30.281075;-97.70938;483.6;532.9269256788153;;0.0;51.870968;;10 / 20;4316;2018-02-21 20:31:56:746
-5.3095;18.2437;0.3007;0.0753;7.0643;-6.8063;3.6267;2.045;-10.0523;-1.9655;-0.4463;1.0304;0.001;26.74;1.04;34.11;47.64;-46.06;-179.37;0.0;1002.97;48.627;30.281075;-97.70938;483.6;532.9269256788153;;0.0;51.870968;;10 / 20;4325;2018-02-21 20:31:56:755
-5.3095;18.2437;0.3007;0.0753;7.0643;-6.8063;3.6267;2.045;-10.0523;-1.9655;-0.4463;1.0304;0.001;26.74;1.04;34.11;47.64;-46.06;-179.37;0.0;1002.97;48.627;30.281075;-97.70938;483.6;532.9269256788153;;0.0;51.870968;;10 / 20;4336;2018-02-21 20:31:56:766
-5.3095;18.2437;0.3007;0.0753;7.0643;-6.8063;3.6267;2.045;-10.0523;-1.9655;-0.4463;1.0304;0.001;26.74;1.04;34.11;47.64;-46.06;-179.37;0.0;1002.97;48.627;30.281075;-97.70938;483.6;532.9269256788153;;0.0;51.870968;;10 / 20;4345;2018-02-21 20:31:56:775
-5.3095;18.2437;0.3007;0.0753;7.0643;-6.8063;3.6267;2.045;-10.0523;-1.9655;-0.4463;1.0304;0.001;26.74;1.04;34.11;47.64;-46.06;-179.37;0.0;1002.97;48.627;30.281075;-97.70938;483.6;532.9269256788153;;0.0;51.870968;;10 / 20;4356;2018-02-21 20:31:56:786
-5.3095;18.2437;0.3007;0.0753;7.0643;-6.8063;3.6267;2.045;-10.0523;-1.9655;-0.4463;1.0304;0.001;26.74;1.04;34.11;47.64;-46.06;-179.37;0.0;1002.97;48.627;30.281075;-97.70938;483.6;532.9269256788153;;0.0;51.870968;;10 / 20;4365;2018-02-21 20:31:56:795
-5.3095;18.2437;0.3007;0.0753;7.0643;-6.8063;3.6267;2.045;-10.0523;-1.9655;-0.4463;1.0304;0.001;26.74;1.04;34.11;47.64;-46.06;-179.37;0.0;1004.14;48.627;30.281075;-97.70938;483.6;532.9269256788153;;0.0;51.870968;;10 / 20;4375;2018-02-21 20:31:56:805
-3.2603;6.2561;4.823;0.0753;7.0643;-6.8063;3.6267;2.045;-10.0523;-1.9655;-0.4463;1.0304;0.001;26.74;1.04;34.11;47.64;-46.06;-179.37;0.0;1004.14;48.627;30.281075;-97.70938;483.6;532.9269256788153;;0.0;51.870968;;10 / 20;4386;2018-02-21 20:31:56:816
-3.2603;6.2561;4.823;-0.2663;9.7737;-0.8004;3.6267;2.045;-10.0523;-1.9655;-0.4463;1.0304;0.001;26.74;1.04;34.11;47.64;-46.06;-179.37;0.0;1004.14;48.627;30.281075;-97.70938;483.6;532.9269256788153;;0.0;51.870968;;10 / 20;4396;2018-02-21 20:31:56:826
-3.2603;6.2561;4.823;-0.2663;9.7737;-0.8004;3.6267;2.045;-10.0523;-5.3174;2.6086;-1.9805;0.001;26.74;1.04;34.11;47.64;-46.06;-179.37;0.0;1004.14;48.627;30.281075;-97.70938;483.6;532.9269256788153;;0.0;51.870968;;10 / 20;4405;2018-02-21 20:31:56:835
-3.2603;6.2561;4.823;-0.2663;9.7737;-0.8004;3.6267;2.045;-10.0523;-5.3174;2.6086;-1.9805;0.001;26.74;1.04;34.11;47.64;-46.06;-179.37;0.0;1004.14;48.627;30.281075;-97.70938;483.6;532.9269256788153;;0.0;51.870968;;10 / 20;4416;2018-02-21 20:31:56:846
-3.2603;6.2561;4.823;-0.2663;9.7737;-0.8004;3.6267;2.045;-10.0523;-5.3174;2.6086;-1.9805;0.001;21.19;-12.66;23.06;24.94;-85.07;161.6;0.0;1004.14;48.627;30.281075;-97.70938;483.6;532.9269256788153;;0.0;51.870968;;10 / 20;4425;2018-02-21 20:31:56:855
-3.2603;6.2561;4.823;-0.2663;9.7737;-0.8004;-6.4018;4.2824;3.4561;-5.3174;2.6086;-1.9805;0.001;21.19;-12.66;23.06;24.94;-85.07;161.6;0.0;1004.14;48.627;30.281075;-97.70938;483.6;532.9269256788153;;0.0;51.870968;;10 / 20;4436;2018-02-21 20:31:56:866
-3.2603;6.2561;4.823;-0.2663;9.7737;-0.8004;-6.4018;4.2824;3.4561;-5.3174;2.6086;-1.9805;0.001;21.19;-12.66;23.06;24.94;-85.07;161.6;0.0;1004.14;48.627;30.281075;-97.70938;483.6;532.9269256788153;;0.0;51.870968;;10 / 20;4445;2018-02-21 20:31:56:875
-3.2603;6.2561;4.823;-0.2663;9.7737;-0.8004;-6.4018;4.2824;3.4561;-5.3174;2.6086;-1.9805;0.001;21.19;-12.66;23.06;24.94;-85.07;161.6;0.0;1004.14;48.627;30.281075;-97.70938;483.6;532.9269256788153;;0.0;51.870968;;10 / 20;4456;2018-02-21 20:31:56:886
-3.2603;6.2561;4.823;-0.2663;9.7737;-0.8004;-6.4018;4.2824;3.4561;-5.3174;2.6086;-1.9805;0.001;21.19;-12.66;23.06;24.94;-85.07;161.6;0.0;1004.14;48.627;30.281075;-97.70938;483.6;532.9269256788153;;0.0;51.870968;;10 / 20;4466;2018-02-21 20:31:56:896
-3.2603;6.2561;4.823;-0.2663;9.7737;-0.8004;-6.4018;4.2824;3.4561;-5.3174;2.6086;-1.9805;0.001;21.19;-12.66;23.06;24.94;-85.07;161.6;0.0;1004.14;48.627;30.281075;-97.70938;483.6;532.9269256788153;;0.0;51.870968;;10 / 20;4476;2018-02-21 20:31:56:906
-3.2603;6.2561;4.823;-0.2663;9.7737;-0.8004;-6.4018;4.2824;3.4561;-5.3174;2.6086;-1.9805;0.001;21.19;-12.66;23.06;24.94;-85.07;161.6;0.0;1004.14;48.627;30.281075;-97.70938;483.6;532.9269256788153;;0.0;51.870968;;10 / 20;4486;2018-02-21 20:31:56:916
-3.2603;6.2561;4.823;-0.2663;9.7737;-0.8004;-6.4018;4.2824;3.4561;-5.3174;2.6086;-1.9805;0.001;21.19;-12.66;23.06;24.94;-85.07;161.6;0.0;1004.14;48.627;30.281075;-97.70938;483.6;532.9269256788153;;0.0;51.870968;;10 / 20;4495;2018-02-21 20:31:56:925
-3.2603;6.2561;4.823;-0.2663;9.7737;-0.8004;-6.4018;4.2824;3.4561;-5.3174;2.6086;-1.9805;0.001;21.19;-12.66;23.06;24.94;-85.07;161.6;0.0;1004.14;48.627;30.281075;-97.70938;483.6;532.9269256788153;;0.0;51.870968;;10 / 20;4505;2018-02-21 20:31:56:935
-3.2603;6.2561;4.823;-0.2663;9.7737;-0.8004;-6.4018;4.2824;3.4561;-5.3174;2.6086;-1.9805;0.001;21.19;-12.66;23.06;24.94;-85.07;161.6;0.0;1004.14;48.627;30.281075;-97.70938;483.6;532.9269256788153;;0.0;51.870968;;10 / 20;4516;2018-02-21 20:31:56:946
-1.5092;17.7294;1.4677;-1.1965;9.5466;1.9151;-6.4018;4.2824;3.4561;-5.3174;2.6086;-1.9805;0.001;21.19;-12.66;23.06;24.94;-85.07;161.6;0.0;1004.14;48.627;30.281075;-97.70938;483.6;532.9269256788153;;0.0;51.870968;;10 / 20;4526;2018-02-21 20:31:56:956
-1.5092;17.7294;1.4677;-1.1965;9.5466;1.9151;-6.4018;4.2824;3.4561;-0.6671;0.9118;-0.6862;0.001;21.19;-12.66;23.06;24.94;-85.07;161.6;0.0;1004.14;48.627;30.281075;-97.70938;483.6;532.9269256788153;;0.0;51.870968;;10 / 20;4535;2018-02-21 20:31:56:965
-1.5092;17.7294;1.4677;-1.1965;9.5466;1.9151;-2.2638;-6.6043;-6.3454;-0.6671;0.9118;-0.6862;0.001;23.04;-17.51;13.11;263.49;-76.69;32.0;0.0;1004.14;48.627;30.281075;-97.70938;483.6;532.9269256788153;;0.0;51.870968;;10 / 20;4546;2018-02-21 20:31:56:976
-1.5092;17.7294;1.4677;-1.1965;9.5466;1.9151;-2.2638;-6.6043;-6.3454;-0.6671;0.9118;-0.6862;0.001;23.04;-17.51;13.11;263.49;-76.69;32.0;0.0;1004.14;48.627;30.281075;-97.70938;483.6;532.9269256788153;;0.0;51.870968;;10 / 20;4556;2018-02-21 20:31:56:986
-1.5092;17.7294;1.4677;-1.1965;9.5466;1.9151;-2.2638;-6.6043;-6.3454;-0.6671;0.9118;-0.6862;0.001;23.04;-17.51;13.11;263.49;-76.69;32.0;0.0;1004.14;48.627;30.281075;-97.70938;483.6;532.9269256788153;;0.0;51.870968;;10 / 20;4565;2018-02-21 20:31:56:995
-1.5092;17.7294;1.4677;-1.1965;9.5466;1.9151;-2.2638;-6.6043;-6.3454;-0.6671;0.9118;-0.6862;0.001;23.04;-17.51;13.11;263.49;-76.69;32.0;0.0;1002.76;48.627;30.281075;-97.70938;483.6;532.9269256788153;;0.0;51.870968;;10 / 20;4576;2018-02-21 20:31:57:006
-1.5092;17.7294;1.4677;-1.1965;9.5466;1.9151;-2.2638;-6.6043;-6.3454;-0.6671;0.9118;-0.6862;0.001;23.04;-17.51;13.11;263.49;-76.69;32.0;0.0;1002.76;48.627;30.281075;-97.70938;483.6;532.9269256788153;;0.0;51.870968;;10 / 20;4585;2018-02-21 20:31:57:015
-1.5092;17.7294;1.4677;-1.1965;9.5466;1.9151;-2.2638;-6.6043;-6.3454;-0.6671;0.9118;-0.6862;0.001;23.04;-17.51;13.11;263.49;-76.69;32.0;0.0;1002.76;48.627;30.281075;-97.70938;483.6;532.9269256788153;;0.0;51.870968;;10 / 20;4596;2018-02-21 20:31:57:026
-1.5092;17.7294;1.4677;-1.1965;9.5466;1.9151;-2.2638;-6.6043;-6.3454;-0.6671;0.9118;-0.6862;0.001;23.04;-17.51;13.11;263.49;-76.69;32.0;0.0;1002.76;48.627;30.281075;-97.70938;483.6;532.9269256788153;;0.0;51.870968;;10 / 20;4605;2018-02-21 20:31:57:035
-1.5092;17.7294;1.4677;-1.1965;9.5466;1.9151;-2.2638;-6.6043;-6.3454;-0.6671;0.9118;-0.6862;0.001;23.04;-17.51;13.11;263.49;-76.69;32.0;0.0;1002.76;47.682;30.281075;-97.70938;483.6;532.9269256788153;;0.0;51.870968;;10 / 20;4615;2018-02-21 20:31:57:045
-1.5092;17.7294;1.4677;-1.1965;9.5466;1.9151;-2.2638;-6.6043;-6.3454;-0.6671;0.9118;-0.6862;0.001;23.04;-17.51;13.11;263.49;-76.69;32.0;0.0;1002.76;47.682;30.281075;-97.70938;483.6;532.9269256788153;;0.0;51.870968;;10 / 20;4626;2018-02-21 20:31:57:056
-1.5092;17.7294;1.4677;-1.1965;9.5466;1.9151;-2.2638;-6.6043;-6.3454;-0.6671;0.9118;-0.6862;0.001;23.04;-17.51;13.11;263.49;-76.69;32.0;0.0;1002.76;47.682;30.281075;-97.70938;483.6;532.9269256788153;;0.0;51.870968;;10 / 20;4635;2018-02-21 20:31:57:065
-1.5092;17.7294;1.4677;-0.652;9.754;0.8191;-2.2638;-6.6043;-6.3454;-0.6671;0.9118;-0.6862;0.001;23.04;-17.51;13.11;263.49;-76.69;32.0;0.0;1002.76;47.682;30.281075;-97.70938;483.6;532.9269256788153;;0.0;51.870968;;10 / 20;4646;2018-02-21 20:31:57:076
-1.5092;17.7294;1.4677;-0.652;9.754;0.8191;-2.2638;-6.6043;-6.3454;1.3603;1.573;1.2275;0.001;19.69;-17.01;14.76;267.48;-83.87;38.52;0.0;1002.76;47.682;30.281075;-97.70938;483.6;532.9269256788153;;0.0;51.870968;;10 / 20;4656;2018-02-21 20:31:57:086
0.4071;14.9249;-4.4283;-0.652;9.754;0.8191;0.2696;2.8158;6.1437;1.3603;1.573;1.2275;0.001;19.69;-17.01;14.76;267.48;-83.87;38.52;0.0;1002.76;47.682;30.281075;-97.70938;483.6;532.9269256788153;;0.0;51.870968;;10 / 20;4665;2018-02-21 20:31:57:095
0.4071;14.9249;-4.4283;-0.652;9.754;0.8191;0.2696;2.8158;6.1437;1.3603;1.573;1.2275;0.001;19.69;-17.01;14.76;267.48;-83.87;38.52;0.0;1002.76;47.682;30.281075;-97.70938;483.6;532.9269256788153;;0.0;51.870968;;10 / 20;4676;2018-02-21 20:31:57:106
0.4071;14.9249;-4.4283;-0.652;9.754;0.8191;0.2696;2.8158;6.1437;1.3603;1.573;1.2275;0.001;19.69;-17.01;14.76;267.48;-83.87;38.52;0.0;1002.76;47.682;30.281075;-97.70938;483.6;532.9269256788153;;0.0;51.870968;;10 / 20;4686;2018-02-21 20:31:57:116
0.4071;14.9249;-4.4283;-0.652;9.754;0.8191;0.2696;2.8158;6.1437;1.3603;1.573;1.2275;0.001;19.69;-17.01;14.76;267.48;-83.87;38.52;0.0;1002.76;47.682;30.281075;-97.70938;483.6;532.9269256788153;;0.0;51.870968;;10 / 20;4695;2018-02-21 20:31:57:125
0.4071;14.9249;-4.4283;-0.652;9.754;0.8191;0.2696;2.8158;6.1437;1.3603;1.573;1.2275;0.001;19.69;-17.01;14.76;267.48;-83.87;38.52;0.0;1002.76;47.682;30.281075;-97.70938;483.6;532.9269256788153;;0.0;51.870968;;10 / 20;4706;2018-02-21 20:31:57:136
0.4071;14.9249;-4.4283;-0.652;9.754;0.8191;0.2696;2.8158;6.1437;1.3603;1.573;1.2275;0.001;19.69;-17.01;14.76;267.48;-83.87;38.52;0.0;1002.76;47.682;30.281075;-97.70938;483.6;532.9269256788153;;0.0;51.870968;;10 / 20;4716;2018-02-21 20:31:57:146
0.4071;14.9249;-4.4283;-0.652;9.754;0.8191;0.2696;2.8158;6.1437;1.3603;1.573;1.2275;0.001;19.69;-17.01;14.76;267.48;-83.87;38.52;0.0;1002.76;47.682;30.281075;-97.70938;483.6;532.9269256788153;;0.0;51.870968;;10 / 20;4725;2018-02-21 20:31:57:155
0.4071;14.9249;-4.4283;-0.652;9.754;0.8191;0.2696;2.8158;6.1437;1.3603;1.573;1.2275;0.001;19.69;-17.01;14.76;267.48;-83.87;38.52;0.0;1002.76;47.682;30.281075;-97.70938;483.6;532.9269256788153;;0.0;51.870968;;10 / 20;4735;2018-02-21 20:31:57:165
0.4071;14.9249;-4.4283;-0.652;9.754;0.8191;0.2696;2.8158;6.1437;1.3603;1.573;1.2275;0.001;19.69;-17.01;14.76;267.48;-83.87;38.52;0.0;1002.76;47.682;30.281075;-97.70938;483.6;532.9269256788153;;0.0;51.870968;;10 / 20;4746;2018-02-21 20:31:57:176
0.4071;14.9249;-4.4283;-0.652;9.754;0.8191;0.2696;2.8158;6.1437;1.3603;1.573;1.2275;0.001;19.69;-17.01;14.76;267.48;-83.87;38.52;0.0;1002.76;47.682;30.281075;-97.70938;483.6;532.9269256788153;;0.0;51.870968;;10 / 20;4756;2018-02-21 20:31:57:186
0.4071;14.9249;-4.4283;-0.652;9.754;0.8191;0.2696;2.8158;6.1437;1.3603;1.573;1.2275;0.001;12.34;-7.11;29.81;239.32;-83.87;38.52;0.0;1002.76;47.682;30.281075;-97.70938;483.6;532.9269256788153;;0.0;51.870968;;10 / 20;4766;2018-02-21 20:31:57:196
0.4071;14.9249;-4.4283;0.7181;8.7216;-4.4332;-2.4246;-1.4136;-5.3501;1.3603;1.573;1.2275;0.001;12.34;-7.11;29.81;239.32;-83.87;38.52;0.0;1002.39;47.682;30.281075;-97.70938;483.6;532.9269256788153;;0.0;51.870968;;10 / 20;4775;2018-02-21 20:31:57:205
0.4071;14.9249;-4.4283;0.7181;8.7216;-4.4332;-2.4246;-1.4136;-5.3501;4.7921;0.2066;0.8635;0.001;12.34;-7.11;29.81;239.32;-83.87;38.52;0.0;1002.39;47.682;30.281075;-97.70938;483.6;532.9269256788153;;0.0;51.870968;;10 / 20;4786;2018-02-21 20:31:57:216
0.4071;14.9249;-4.4283;0.7181;8.7216;-4.4332;-2.4246;-1.4136;-5.3501;4.7921;0.2066;0.8635;0.001;12.34;-7.11;29.81;239.32;-83.87;38.52;0.0;1002.39;47.682;30.281075;-97.70938;483.6;532.9269256788153;;0.0;51.870968;;10 / 20;4796;2018-02-21 20:31:57:226
-3.0351;3.3566;-0.5414;0.7181;8.7216;-4.4332;-2.4246;-1.4136;-5.3501;4.7921;0.2066;0.8635;0.001;12.34;-7.11;29.81;239.32;-83.87;38.52;0.0;1002.39;47.682;30.281075;-97.70938;483.6;532.9269256788153;;0.0;51.870968;;10 / 20;4805;2018-02-21 20:31:57:235
-3.0351;3.3566;-0.5414;0.7181;8.7216;-4.4332;-2.4246;-1.4136;-5.3501;4.7921;0.2066;0.8635;0.001;12.34;-7.11;29.81;239.32;-83.87;38.52;0.0;1002.39;47.682;30.281075;-97.70938;483.6;532.9269256788153;;0.0;51.870968;;10 / 20;4816;2018-02-21 20:31:57:246
