sep=;
ACCELEROMETER X (m/s²);ACCELEROMETER Y (m/s²);ACCELEROMETER Z (m/s²);GRAVITY X (m/s²);GRAVITY Y (m/s²);GRAVITY Z (m/s²);LINEAR ACCELERATION X (m/s²);LINEAR ACCELERATION Y (m/s²);LINEAR ACCELERATION Z (m/s²);GYROSCOPE X (rad/s);GYROSCOPE Y (rad/s);GYROSCOPE Z (rad/s);LIGHT (lux);MAGNETIC FIELD X (μT);MAGNETIC FIELD Y (μT);MAGNETIC FIELD Z (μT);ORIENTATION Z (azimuth °);ORIENTATION X (pitch °);ORIENTATION Y (roll °);PROXIMITY (i);ATMOSPHERIC PRESSURE (hPa);SOUND LEVEL (dB);LOCATION Latitude : ;LOCATION Longitude : ;LOCATION Altitude ( m);LOCATION Altitude-google ( m);LOCATION Altitude-atmospheric pressure ( m);LOCATION Speed ( Kmh);LOCATION Accuracy ( m);LOCATION ORIENTATION (°);Satellites in range;Time since start in ms ;YYYY-MO-DD HH-MI-SS_SSS
3.1163;2.5453;9.522;1.8431;2.6242;9.2711;-0.8607;0.034;-1.5456;-0.4478;-0.0948;2.2035;29.3;-9.66;18.39;-27.99;9.79;-15.52;-11.24;2.0;1003.82;22.856;30.281076;-97.70932;478.77;532.4035811898309;;0.0;34.580647;;17 / 20;8;2018-02-21 20:29:58:857
3.1163;2.5453;9.522;1.8431;2.6242;9.2711;-0.8607;0.034;-1.5456;-0.4478;-0.0948;2.2035;29.3;-9.66;18.39;-27.99;9.79;-15.52;-11.24;2.0;1003.82;22.856;30.281076;-97.70932;478.77;532.4035811898309;;0.0;34.580647;;17 / 20;18;2018-02-21 20:29:58:867
3.1163;2.5453;9.522;1.8431;2.6242;9.2711;-0.8607;0.034;-1.5456;-0.4478;-0.0948;2.2035;29.3;-9.66;18.39;-27.99;9.79;-15.52;-11.24;2.0;1003.82;22.856;30.281076;-97.70932;478.77;532.4035811898309;;0.0;34.580647;;17 / 20;28;2018-02-21 20:29:58:877
3.1163;2.5453;9.522;1.8431;2.6242;9.2711;0.1421;-0.7311;-0.7878;-0.4478;-0.0948;2.2035;29.3;-9.66;18.39;-27.99;9.79;-15.52;-11.24;2.0;1003.82;22.856;30.281076;-97.70932;478.77;532.4035811898309;;0.0;34.580647;;17 / 20;38;2018-02-21 20:29:58:887
1.7713;2.0583;10.3833;1.8431;2.6242;9.2711;0.1421;-0.7311;-0.7878;-0.4478;-0.0948;2.2035;29.3;-9.66;18.39;-27.99;9.79;-15.52;-11.24;2.0;1003.82;22.856;30.281076;-97.70932;478.77;532.4035811898309;;0.0;34.580647;;17 / 20;47;2018-02-21 20:29:58:896
1.7713;2.0583;10.3833;1.8431;2.6242;9.2711;0.1421;-0.7311;-0.7878;-0.4478;-0.0948;2.2035;29.3;-9.66;18.39;-27.99;9.79;-15.52;-11.24;2.0;1003.82;22.856;30.281076;-97.70932;478.77;532.4035811898309;;0.0;34.580647;;17 / 20;58;2018-02-21 20:29:58:907
1.7713;2.0583;10.3833;1.8431;2.6242;9.2711;0.1421;-0.7311;-0.7878;-0.4478;-0.0948;2.2035;29.3;-9.66;18.39;-27.99;9.79;-15.52;-11.24;2.0;1003.84;22.856;30.281076;-97.70932;478.77;532.4035811898309;;0.0;34.580647;;17 / 20;67;2018-02-21 20:29:58:916
1.7713;2.0583;10.3833;1.7649;2.3529;9.3587;0.1421;-0.7311;-0.7878;-0.4478;-0.0948;2.2035;29.3;-9.66;18.39;-27.99;9.79;-15.52;-11.24;2.0;1003.84;22.856;30.281076;-97.70932;478.77;532.4035811898309;;0.0;34.580647;;17 / 20;78;2018-02-21 20:29:58:927
1.7713;2.0583;10.3833;1.7649;2.3529;9.3587;0.1421;-0.7311;-0.7878;-0.4566;0.2557;0.7897;29.3;-9.06;22.09;-30.39;6.5;-13.88;-10.68;2.0;1003.84;22.856;30.281076;-97.70932;478.77;532.4035811898309;;0.0;34.580647;;17 / 20;87;2018-02-21 20:29:58:936
1.7713;2.0583;10.3833;1.7649;2.3529;9.3587;0.1421;-0.7311;-0.7878;-0.4566;0.2557;0.7897;29.3;-9.06;22.09;-30.39;6.5;-13.88;-10.68;2.0;1003.84;22.856;30.281076;-97.70932;478.77;532.4035811898309;;0.0;34.580647;;17 / 20;98;2018-02-21 20:29:58:947
1.7713;2.0583;10.3833;1.7649;2.3529;9.3587;0.1421;-0.7311;-0.7878;-0.4566;0.2557;0.7897;29.3;-9.06;22.09;-30.39;6.5;-13.88;-10.68;2.0;1003.84;22.856;30.281076;-97.70932;478.77;532.4035811898309;;0.0;34.580647;;17 / 20;108;2018-02-21 20:29:58:957
1.7713;2.0583;10.3833;1.7649;2.3529;9.3587;0.1421;-0.7311;-0.7878;-0.4566;0.2557;0.7897;29.3;-9.06;22.09;-30.39;6.5;-13.88;-10.68;2.0;1003.84;22.856;30.281076;-97.70932;478.77;532.4035811898309;;0.0;34.580647;;17 / 20;118;2018-02-21 20:29:58:967
1.7713;2.0583;10.3833;1.7649;2.3529;9.3587;0.1421;-0.7311;-0.7878;-0.4566;0.2557;0.7897;29.3;-9.06;22.09;-30.39;6.5;-13.88;-10.68;2.0;1003.84;22.856;30.281076;-97.70932;478.77;532.4035811898309;;0.0;34.580647;;17 / 20;128;2018-02-21 20:29:58:977
1.7713;2.0583;10.3833;1.7649;2.3529;9.3587;0.1421;-0.7311;-0.7878;-0.4566;0.2557;0.7897;29.3;-9.06;22.09;-30.39;6.5;-13.88;-10.68;2.0;1003.84;22.856;30.281076;-97.70932;478.77;532.4035811898309;;0.0;34.580647;;17 / 20;137;2018-02-21 20:29:58:986
1.7713;2.0583;10.3833;1.7649;2.3529;9.3587;0.1421;-0.7311;-0.7878;-0.4566;0.2557;0.7897;29.3;-9.06;22.09;-30.39;6.5;-13.88;-10.68;2.0;1003.84;22.856;30.281076;-97.70932;478.77;532.4035811898309;;0.0;34.580647;;17 / 20;148;2018-02-21 20:29:58:997
1.7713;2.0583;10.3833;1.7649;2.3529;9.3587;-1.1802;-0.8189;0.6681;-0.4566;0.2557;0.7897;29.3;-9.06;22.09;-30.39;6.5;-13.88;-10.68;2.0;1003.84;22.856;30.281076;-97.70932;478.77;532.4035811898309;;0.0;34.580647;;17 / 20;158;2018-02-21 20:29:59:007
1.7713;2.0583;10.3833;1.7649;2.3529;9.3587;-1.1802;-0.8189;0.6681;-0.4566;0.2557;0.7897;29.3;-9.06;22.09;-30.39;6.5;-13.88;-10.68;2.0;1003.84;22.856;30.281076;-97.70932;478.77;532.4035811898309;;0.0;34.580647;;17 / 20;168;2018-02-21 20:29:59:017
1.7713;2.0583;10.3833;1.7649;2.3529;9.3587;-1.1802;-0.8189;0.6681;-0.4566;0.2557;0.7897;29.3;-9.06;22.09;-30.39;6.5;-13.88;-10.68;2.0;1003.84;22.856;30.281076;-97.70932;478.77;532.4035811898309;;0.0;34.580647;;17 / 20;177;2018-02-21 20:29:59:026
2.1162;3.517;9.264;1.7649;2.3529;9.3587;-1.1802;-0.8189;0.6681;-0.4566;0.2557;0.7897;29.3;-9.06;22.09;-30.39;6.5;-13.88;-10.68;2.0;1003.84;22.856;30.281076;-97.70932;478.77;532.4035811898309;;0.0;34.580647;;17 / 20;188;2018-02-21 20:29:59:037
2.1162;3.517;9.264;1.7649;2.3529;9.3587;-1.1802;-0.8189;0.6681;-0.4566;0.2557;0.7897;29.3;-9.06;22.09;-30.39;6.5;-13.88;-10.68;2.0;1003.84;22.856;30.281076;-97.70932;478.77;532.4035811898309;;0.0;34.580647;;17 / 20;197;2018-02-21 20:29:59:046
2.1162;3.517;9.264;1.2261;3.4296;9.1088;-1.1802;-0.8189;0.6681;0.888;1.1897;0.4183;29.3;-8.26;21.29;-31.74;3.91;-13.88;-10.68;2.0;1003.84;22.856;30.281076;-97.70932;478.77;532.4035811898309;;0.0;34.580647;;17 / 20;207;2018-02-21 20:29:59:056
2.1162;3.517;9.264;1.2261;3.4296;9.1088;-1.1802;-0.8189;0.6681;0.888;1.1897;0.4183;29.3;-8.26;21.29;-31.74;3.91;-13.88;-10.68;2.0;1003.84;22.856;30.281076;-97.70932;478.77;532.4035811898309;;0.0;34.580647;;17 / 20;218;2018-02-21 20:29:59:067
2.1162;3.517;9.264;1.2261;3.4296;9.1088;-1.1802;-0.8189;0.6681;0.888;1.1897;0.4183;29.3;-8.26;21.29;-31.74;3.91;-13.88;-10.68;2.0;1003.84;22.856;30.281076;-97.70932;478.77;532.4035811898309;;0.0;34.580647;;17 / 20;227;2018-02-21 20:29:59:076
2.1162;3.517;9.264;1.2261;3.4296;9.1088;-1.1802;-0.8189;0.6681;0.888;1.1897;0.4183;29.3;-8.26;21.29;-31.74;3.91;-13.88;-10.68;2.0;1003.84;22.856;30.281076;-97.70932;478.77;532.4035811898309;;0.0;34.580647;;17 / 20;237;2018-02-21 20:29:59:086
2.1162;3.517;9.264;1.2261;3.4296;9.1088;-1.1802;-0.8189;0.6681;0.888;1.1897;0.4183;29.3;-8.26;21.29;-31.74;3.91;-13.88;-10.68;2.0;1003.84;22.856;30.281076;-97.70932;478.77;532.4035811898309;;0.0;34.580647;;17 / 20;248;2018-02-21 20:29:59:097
2.1162;3.517;9.264;1.2261;3.4296;9.1088;-1.1802;-0.8189;0.6681;0.888;1.1897;0.4183;29.3;-8.26;21.29;-31.74;3.91;-13.88;-10.68;2.0;1003.84;22.856;30.281076;-97.70932;478.77;532.4035811898309;;0.0;34.580647;;17 / 20;258;2018-02-21 20:29:59:107
2.1162;3.517;9.264;1.2261;3.4296;9.1088;-0.648;-0.3536;1.0106;0.888;1.1897;0.4183;29.3;-8.26;21.29;-31.74;3.91;-13.88;-10.68;2.0;1003.83;22.856;30.281076;-97.70932;478.77;532.4035811898309;;0.0;34.580647;;17 / 20;267;2018-02-21 20:29:59:116
2.1162;3.517;9.264;1.2261;3.4296;9.1088;-0.648;-0.3536;1.0106;0.888;1.1897;0.4183;29.3;-8.26;21.29;-31.74;3.91;-13.88;-10.68;2.0;1003.83;22.856;30.281076;-97.70932;478.77;532.4035811898309;;0.0;34.580647;;17 / 20;277;2018-02-21 20:29:59:126
2.1162;3.517;9.264;1.2261;3.4296;9.1088;-0.648;-0.3536;1.0106;0.888;1.1897;0.4183;29.3;-8.26;21.29;-31.74;3.91;-13.88;-10.68;2.0;1003.83;22.856;30.281076;-97.70932;478.77;532.4035811898309;;0.0;34.580647;;17 / 20;288;2018-02-21 20:29:59:137
2.1162;3.517;9.264;1.2261;3.4296;9.1088;-0.648;-0.3536;1.0106;0.888;1.1897;0.4183;29.3;-8.26;21.29;-31.74;3.91;-13.88;-10.68;2.0;1003.83;22.856;30.281076;-97.70932;478.77;532.4035811898309;;0.0;34.580647;;17 / 20;298;2018-02-21 20:29:59:147
2.1162;3.517;9.264;1.2261;3.4296;9.1088;-0.648;-0.3536;1.0106;0.888;1.1897;0.4183;29.3;-8.26;21.29;-31.74;3.91;-13.88;-10.68;2.0;1003.83;22.856;30.281076;-97.70932;478.77;532.4035811898309;;0.0;34.580647;;17 / 20;308;2018-02-21 20:29:59:157
2.1162;3.517;9.264;1.2261;3.4296;9.1088;-0.648;-0.3536;1.0106;0.888;1.1897;0.4183;29.3;-6.36;20.59;-34.29;2.55;-20.46;-7.67;2.0;1003.83;22.856;30.281076;-97.70932;478.77;532.4035811898309;;0.0;34.580647;;17 / 20;318;2018-02-21 20:29:59:167
1.461;4.0634;7.9047;0.7509;3.8378;8.9969;-0.648;-0.3536;1.0106;0.888;1.1897;0.4183;29.3;-6.36;20.59;-34.29;2.55;-20.46;-7.67;2.0;1003.83;22.856;30.281076;-97.70932;478.77;532.4035811898309;;0.0;34.580647;;17 / 20;327;2018-02-21 20:29:59:176
1.461;4.0634;7.9047;0.7509;3.8378;8.9969;-0.648;-0.3536;1.0106;0.088;-0.0736;-0.3096;29.3;-6.36;20.59;-34.29;2.55;-20.46;-7.67;2.0;1003.83;16.599;30.281076;-97.70932;478.77;532.4035811898309;;0.0;34.580647;;17 / 20;338;2018-02-21 20:29:59:187
1.461;4.0634;7.9047;0.7509;3.8378;8.9969;-0.648;-0.3536;1.0106;0.088;-0.0736;-0.3096;29.3;-6.36;20.59;-34.29;2.55;-20.46;-7.67;2.0;1003.83;16.599;30.281076;-97.70932;478.77;532.4035811898309;;0.0;34.580647;;17 / 20;348;2018-02-21 20:29:59:197
1.461;4.0634;7.9047;0.7509;3.8378;8.9969;-0.648;-0.3536;1.0106;0.088;-0.0736;-0.3096;29.3;-6.36;20.59;-34.29;2.55;-20.46;-7.67;2.0;1003.83;16.599;30.281076;-97.70932;478.77;532.4035811898309;;0.0;34.580647;;17 / 20;358;2018-02-21 20:29:59:207
1.461;4.0634;7.9047;0.7509;3.8378;8.9969;-0.648;-0.3536;1.0106;0.088;-0.0736;-0.3096;29.3;-6.36;20.59;-34.29;2.55;-20.46;-7.67;2.0;1003.83;16.599;30.281076;-97.70932;478.77;532.4035811898309;;0.0;34.580647;;17 / 20;368;2018-02-21 20:29:59:217
1.461;4.0634;7.9047;0.7509;3.8378;8.9969;-0.648;-0.3536;1.0106;0.088;-0.0736;-0.3096;29.3;-6.36;20.59;-34.29;2.55;-20.46;-7.67;2.0;1003.83;16.599;30.281076;-97.70932;478.77;532.4035811898309;;0.0;34.580647;;17 / 20;377;2018-02-21 20:29:59:226
1.461;4.0634;7.9047;0.7509;3.8378;8.9969;-0.6829;0.493;0.1348;0.088;-0.0736;-0.3096;29.3;-6.36;20.59;-34.29;2.55;-20.46;-7.67;2.0;1003.83;16.599;30.281076;-97.70932;478.77;532.4035811898309;;0.0;34.580647;;17 / 20;388;2018-02-21 20:29:59:237
1.461;4.0634;7.9047;0.7509;3.8378;8.9969;-0.6829;0.493;0.1348;0.088;-0.0736;-0.3096;29.3;-6.36;20.59;-34.29;2.55;-20.46;-7.67;2.0;1003.83;16.599;30.281076;-97.70932;478.77;532.4035811898309;;0.0;34.580647;;17 / 20;397;2018-02-21 20:29:59:246
1.461;4.0634;7.9047;0.7509;3.8378;8.9969;-0.6829;0.493;0.1348;0.088;-0.0736;-0.3096;29.3;-6.36;20.59;-34.29;2.55;-20.46;-7.67;2.0;1003.83;16.599;30.281076;-97.70932;478.77;532.4035811898309;;0.0;34.580647;;17 / 20;408;2018-02-21 20:29:59:257
1.461;4.0634;7.9047;0.7509;3.8378;8.9969;-0.6829;0.493;0.1348;0.088;-0.0736;-0.3096;136.037;-6.36;20.59;-34.29;2.55;-20.46;-7.67;2.0;1003.83;16.599;30.281076;-97.70932;478.77;532.4035811898309;;0.0;34.580647;;17 / 20;418;2018-02-21 20:29:59:267
1.461;4.0634;7.9047;0.7509;3.8378;8.9969;-0.6829;0.493;0.1348;0.088;-0.0736;-0.3096;136.037;-6.36;20.59;-34.29;2.55;-20.46;-7.67;2.0;1003.83;16.599;30.281076;-97.70932;478.77;532.4035811898309;;0.0;34.580647;;17 / 20;428;2018-02-21 20:29:59:277
1.461;4.0634;7.9047;0.7509;3.8378;8.9969;-0.6829;0.493;0.1348;0.088;-0.0736;-0.3096;136.037;-9.06;22.84;-34.79;9.79;-23.03;-4.77;2.0;1003.83;16.599;30.281076;-97.70932;478.77;532.4035811898309;;0.0;34.580647;;17 / 20;438;2018-02-21 20:29:59:287
1.461;4.0634;7.9047;0.7509;3.8378;8.9969;-0.6829;0.493;0.1348;0.088;-0.0736;-0.3096;136.037;-9.06;22.84;-34.79;9.79;-23.03;-4.77;2.0;1003.83;16.599;30.281076;-97.70932;478.77;532.4035811898309;;0.0;34.580647;;17 / 20;447;2018-02-21 20:29:59:296
1.461;4.0634;7.9047;1.0863;3.7066;9.0176;-0.6829;0.493;0.1348;-0.1648;-0.1061;-0.571;136.037;-9.06;22.84;-34.79;9.79;-23.03;-4.77;2.0;1003.83;16.599;30.281076;-97.70932;478.77;532.4035811898309;;0.0;34.580647;;17 / 20;458;2018-02-21 20:29:59:307
0.8071;2.6023;6.2181;1.0863;3.7066;9.0176;-0.6829;0.493;0.1348;-0.1648;-0.1061;-0.571;136.037;-9.06;22.84;-34.79;9.79;-23.03;-4.77;2.0;1003.81;16.599;30.281076;-97.70932;478.77;532.4035811898309;;0.0;34.580647;;17 / 20;467;2018-02-21 20:29:59:316
0.8071;2.6023;6.2181;1.0863;3.7066;9.0176;-0.6829;0.493;0.1348;-0.1648;-0.1061;-0.571;136.037;-9.06;22.84;-34.79;9.79;-23.03;-4.77;2.0;1003.81;16.599;30.281076;-97.70932;478.77;532.4035811898309;;0.0;34.580647;;17 / 20;478;2018-02-21 20:29:59:327
0.8071;2.6023;6.2181;1.0863;3.7066;9.0176;-0.6829;0.493;0.1348;-0.1648;-0.1061;-0.571;136.037;-9.06;22.84;-34.79;9.79;-23.03;-4.77;2.0;1003.81;16.599;30.281076;-97.70932;478.77;532.4035811898309;;0.0;34.580647;;17 / 20;488;2018-02-21 20:29:59:337
0.8071;2.6023;6.2181;1.0863;3.7066;9.0176;-0.6829;0.493;0.1348;-0.1648;-0.1061;-0.571;136.037;-9.06;22.84;-34.79;9.79;-23.03;-4.77;2.0;1003.81;16.599;30.281076;-97.70932;478.77;532.4035811898309;;0.0;34.580647;;17 / 20;497;2018-02-21 20:29:59:346
0.8071;2.6023;6.2181;1.0863;3.7066;9.0176;-1.1578;0.0767;-0.7471;-0.1648;-0.1061;-0.571;136.037;-9.06;22.84;-34.79;9.79;-23.03;-4.77;2.0;1003.81;16.599;30.281076;-97.70932;478.77;532.4035811898309;;0.0;34.580647;;17 / 20;508;2018-02-21 20:29:59:357
0.8071;2.6023;6.2181;1.0863;3.7066;9.0176;-1.1578;0.0767;-0.7471;-0.1648;-0.1061;-0.571;136.037;-9.06;22.84;-34.79;9.79;-23.03;-4.77;2.0;1003.81;16.599;30.281076;-97.70932;478.77;532.4035811898309;;0.0;34.580647;;17 / 20;518;2018-02-21 20:29:59:367
0.8071;2.6023;6.2181;1.0863;3.7066;9.0176;-1.1578;0.0767;-0.7471;-0.1648;-0.1061;-0.571;136.037;-9.06;22.84;-34.79;9.79;-23.03;-4.77;2.0;1003.81;16.599;30.281076;-97.70932;478.77;532.4035811898309;;0.0;34.580647;;17 / 20;527;2018-02-21 20:29:59:376
0.8071;2.6023;6.2181;1.0863;3.7066;9.0176;-1.1578;0.0767;-0.7471;-0.1648;-0.1061;-0.571;136.037;-9.06;22.84;-34.79;9.79;-23.03;-4.77;2.0;1003.81;16.599;30.281076;-97.70932;478.77;532.4035811898309;;0.0;34.580647;;17 / 20;538;2018-02-21 20:29:59:387
0.8071;2.6023;6.2181;1.0863;3.7066;9.0176;-1.1578;0.0767;-0.7471;-0.1648;-0.1061;-0.571;136.037;-11.16;24.54;-36.44;10.1;-22.2;-6.87;2.0;1003.81;16.599;30.281076;-97.70932;478.77;532.4035811898309;;0.0;34.580647;;17 / 20;548;2018-02-21 20:29:59:397
0.8071;2.6023;6.2181;1.0863;3.7066;9.0176;-1.1578;0.0767;-0.7471;-0.1648;-0.1061;-0.571;136.037;-11.16;24.54;-36.44;10.1;-22.2;-6.87;2.0;1003.81;16.599;30.281076;-97.70932;478.77;532.4035811898309;;0.0;34.580647;;17 / 20;557;2018-02-21 20:29:59:406
0.8071;2.6023;6.2181;1.0863;3.7066;9.0176;-1.1578;0.0767;-0.7471;-0.1648;-0.1061;-0.571;136.037;-11.16;24.54;-36.44;10.1;-22.2;-6.87;2.0;1003.81;16.599;30.281076;-97.70932;478.77;532.4035811898309;;0.0;34.580647;;19 / 20;568;2018-02-21 20:29:59:417
0.8071;2.6023;6.2181;0.3983;3.5784;9.1254;-1.1578;0.0767;-0.7471;-0.1648;-0.1061;-0.571;136.037;-11.16;24.54;-36.44;10.1;-22.2;-6.87;2.0;1003.81;16.599;30.281076;-97.70932;478.77;532.4035811898309;;0.0;34.580647;;19 / 20;578;2018-02-21 20:29:59:427
0.8071;2.6023;6.2181;0.3983;3.5784;9.1254;-1.1578;0.0767;-0.7471;0.5538;0.8458;0.1745;136.037;-11.16;24.54;-36.44;10.1;-22.2;-6.87;2.0;1003.81;16.599;30.281076;-97.70932;478.77;532.4035811898309;;0.0;34.580647;;19 / 20;587;2018-02-21 20:29:59:436
0.8071;2.6023;6.2181;0.3983;3.5784;9.1254;-1.1578;0.0767;-0.7471;0.5538;0.8458;0.1745;136.037;-11.16;24.54;-36.44;10.1;-22.2;-6.87;2.0;1003.81;16.599;30.281076;-97.70932;478.77;532.4035811898309;;0.0;34.580647;;19 / 20;598;2018-02-21 20:29:59:447
1.2419;3.2152;8.0313;0.3983;3.5784;9.1254;-1.1578;0.0767;-0.7471;0.5538;0.8458;0.1745;136.037;-11.16;24.54;-36.44;10.1;-22.2;-6.87;2.0;1003.81;16.599;30.281076;-97.70932;478.77;532.4035811898309;;0.0;34.580647;;19 / 20;607;2018-02-21 20:29:59:456
1.2419;3.2152;8.0313;0.3983;3.5784;9.1254;1.988;-1.3517;-2.5437;0.5538;0.8458;0.1745;136.037;-11.16;24.54;-36.44;10.1;-22.2;-6.87;2.0;1003.81;16.599;30.281076;-97.70932;478.77;532.4035811898309;;0.0;34.580647;;19 / 20;617;2018-02-21 20:29:59:466
1.2419;3.2152;8.0313;0.3983;3.5784;9.1254;1.988;-1.3517;-2.5437;0.5538;0.8458;0.1745;136.037;-11.16;24.54;-36.44;10.1;-22.2;-6.87;2.0;1003.81;16.599;30.281076;-97.70932;478.77;532.4035811898309;;0.0;34.580647;;19 / 20;628;2018-02-21 20:29:59:477
1.2419;3.2152;8.0313;0.3983;3.5784;9.1254;1.988;-1.3517;-2.5437;0.5538;0.8458;0.1745;136.037;-11.16;24.54;-36.44;10.1;-22.2;-6.87;2.0;1003.81;16.599;30.281076;-97.70932;478.77;532.4035811898309;;0.0;34.580647;;19 / 20;637;2018-02-21 20:29:59:486
1.2419;3.2152;8.0313;0.3983;3.5784;9.1254;1.988;-1.3517;-2.5437;0.5538;0.8458;0.1745;136.037;-11.16;24.54;-36.44;10.1;-22.2;-6.87;2.0;1003.81;16.599;30.281076;-97.70932;478.77;532.4035811898309;;0.0;34.580647;;19 / 20;648;2018-02-21 20:29:59:497
1.2419;3.2152;8.0313;0.3983;3.5784;9.1254;1.988;-1.3517;-2.5437;0.5538;0.8458;0.1745;136.037;-11.16;24.54;-36.44;10.1;-22.2;-6.87;2.0;1003.81;13.705;30.281076;-97.70932;478.77;532.4035811898309;;0.0;34.580647;;19 / 20;658;2018-02-21 20:29:59:507
1.2419;3.2152;8.0313;0.3983;3.5784;9.1254;1.988;-1.3517;-2.5437;0.5538;0.8458;0.1745;136.037;-10.66;24.69;-37.34;14.24;-21.39;-2.5;2.0;1003.81;13.705;30.281076;-97.70932;478.77;532.4035811898309;;0.0;34.580647;;19 / 20;667;2018-02-21 20:29:59:516
1.2419;3.2152;8.0313;0.3983;3.5784;9.1254;1.988;-1.3517;-2.5437;0.5538;0.8458;0.1745;136.037;-10.66;24.69;-37.34;14.24;-21.39;-2.5;2.0;1003.81;13.705;30.281076;-97.70932;478.77;532.4035811898309;;0.0;34.580647;;19 / 20;678;2018-02-21 20:29:59:527
1.2419;3.2152;8.0313;0.3983;3.5784;9.1254;1.988;-1.3517;-2.5437;0.5538;0.8458;0.1745;136.037;-10.66;24.69;-37.34;14.24;-21.39;-2.5;2.0;1003.81;13.705;30.281076;-97.70932;478.77;532.4035811898309;;0.0;34.580647;;19 / 20;687;2018-02-21 20:29:59:536
1.2419;3.2152;8.0313;0.3983;3.5784;9.1254;1.988;-1.3517;-2.5437;0.5538;0.8458;0.1745;136.037;-10.66;24.69;-37.34;14.24;-21.39;-2.5;2.0;1003.81;13.705;30.281076;-97.70932;478.77;532.4035811898309;;0.0;34.580647;;19 / 20;698;2018-02-21 20:29:59:547
1.2419;3.2152;8.0313;0.7431;4.3929;8.7399;1.988;-1.3517;-2.5437;1.4987;-0.5647;0.5002;136.037;-10.66;24.69;-37.34;14.24;-21.39;-2.5;2.0;1003.81;13.705;30.281076;-97.70932;478.77;532.4035811898309;;0.0;34.580647;;19 / 20;707;2018-02-21 20:29:59:556
1.2419;3.2152;8.0313;0.7431;4.3929;8.7399;1.988;-1.3517;-2.5437;1.4987;-0.5647;0.5002;136.037;-10.66;24.69;-37.34;14.24;-21.39;-2.5;2.0;1003.81;13.705;30.281076;-97.70932;478.77;532.4035811898309;;0.0;34.580647;;19 / 20;718;2018-02-21 20:29:59:567
1.2419;3.2152;8.0313;0.7431;4.3929;8.7399;2.151;0.2227;0.0945;1.4987;-0.5647;0.5002;136.037;-10.66;24.69;-37.34;14.24;-21.39;-2.5;2.0;1003.81;13.705;30.281076;-97.70932;478.77;532.4035811898309;;0.0;34.580647;;19 / 20;727;2018-02-21 20:29:59:576
1.2419;3.2152;8.0313;0.7431;4.3929;8.7399;2.151;0.2227;0.0945;1.4987;-0.5647;0.5002;136.037;-10.66;24.69;-37.34;14.24;-21.39;-2.5;2.0;1003.81;13.705;30.281076;-97.70932;478.77;532.4035811898309;;0.0;34.580647;;19 / 20;738;2018-02-21 20:29:59:587
-1.4913;3.6595;11.2254;0.7431;4.3929;8.7399;2.151;0.2227;0.0945;1.4987;-0.5647;0.5002;136.037;-10.66;24.69;-37.34;14.24;-21.39;-2.5;2.0;1003.81;13.705;30.281076;-97.70932;478.77;532.4035811898309;;0.0;34.580647;;19 / 20;748;2018-02-21 20:29:59:597
-1.4913;3.6595;11.2254;0.7431;4.3929;8.7399;2.151;0.2227;0.0945;1.4987;-0.5647;0.5002;136.037;-10.66;24.69;-37.34;14.24;-21.39;-2.5;2.0;1003.81;13.705;30.281076;-97.70932;478.77;532.4035811898309;;0.0;34.580647;;19 / 20;758;2018-02-21 20:29:59:607
-1.4913;3.6595;11.2254;0.7431;4.3929;8.7399;2.151;0.2227;0.0945;1.4987;-0.5647;0.5002;136.037;-10.66;24.69;-37.34;14.24;-21.39;-2.5;2.0;1003.81;13.705;30.281076;-97.70932;478.77;532.4035811898309;;0.0;34.580647;;19 / 20;767;2018-02-21 20:29:59:616
-1.4913;3.6595;11.2254;0.7431;4.3929;8.7399;2.151;0.2227;0.0945;1.4987;-0.5647;0.5002;136.037;-12.86;21.49;-39.19;14.74;-26.6;-4.86;2.0;1003.81;13.705;30.281076;-97.70932;478.77;532.4035811898309;;0.0;34.580647;;19 / 20;778;2018-02-21 20:29:59:627
-1.4913;3.6595;11.2254;0.7431;4.3929;8.7399;2.151;0.2227;0.0945;1.4987;-0.5647;0.5002;136.037;-12.86;21.49;-39.19;14.74;-26.6;-4.86;2.0;1003.81;13.705;30.281076;-97.70932;478.77;532.4035811898309;;0.0;34.580647;;19 / 20;787;2018-02-21 20:29:59:636
-1.4913;3.6595;11.2254;0.7431;4.3929;8.7399;2.151;0.2227;0.0945;1.4987;-0.5647;0.5002;136.037;-12.86;21.49;-39.19;14.74;-26.6;-4.86;2.0;1003.81;13.705;30.281076;-97.70932;478.77;532.4035811898309;;0.0;34.580647;;19 / 20;798;2018-02-21 20:29:59:647
-1.4913;3.6595;11.2254;0.7431;4.3929;8.7399;2.151;0.2227;0.0945;1.4987;-0.5647;0.5002;136.037;-12.86;21.49;-39.19;14.74;-26.6;-4.86;2.0;1003.81;13.705;30.281076;-97.70932;478.77;532.4035811898309;;0.0;34.580647;;19 / 20;808;2018-02-21 20:29:59:657
-1.4913;3.6595;11.2254;0.7431;4.3929;8.7399;2.151;0.2227;0.0945;1.4987;-0.5647;0.5002;136.037;-12.86;21.49;-39.19;14.74;-26.6;-4.86;2.0;1003.81;13.705;30.281076;-97.70932;478.77;532.4035811898309;;0.0;34.580647;;19 / 20;817;2018-02-21 20:29:59:666
-1.4913;3.6595;11.2254;0.4956;5.3069;8.2358;2.151;0.2227;0.0945;0.9078;0.525;0.7655;136.037;-12.86;21.49;-39.19;14.74;-26.6;-4.86;2.0;1003.81;13.705;30.281076;-97.70932;478.77;532.4035811898309;;0.0;34.580647;;19 / 20;828;2018-02-21 20:29:59:677
-1.4913;3.6595;11.2254;0.4956;5.3069;8.2358;2.151;0.2227;0.0945;0.9078;0.525;0.7655;136.037;-12.86;21.49;-39.19;14.74;-26.6;-4.86;2.0;1003.81;13.705;30.281076;-97.70932;478.77;532.4035811898309;;0.0;34.580647;;19 / 20;838;2018-02-21 20:29:59:687
-1.4913;3.6595;11.2254;0.4956;5.3069;8.2358;-0.3981;-0.8549;1.6605;0.9078;0.525;0.7655;136.037;-12.86;21.49;-39.19;14.74;-26.6;-4.86;2.0;1003.81;13.705;30.281076;-97.70932;478.77;532.4035811898309;;0.0;34.580647;;19 / 20;847;2018-02-21 20:29:59:696
-1.4913;3.6595;11.2254;0.4956;5.3069;8.2358;-0.3981;-0.8549;1.6605;0.9078;0.525;0.7655;136.037;-12.86;21.49;-39.19;14.74;-26.6;-4.86;2.0;1003.81;13.705;30.281076;-97.70932;478.77;532.4035811898309;;0.0;34.580647;;19 / 20;857;2018-02-21 20:29:59:706
-1.4913;3.6595;11.2254;0.4956;5.3069;8.2358;-0.3981;-0.8549;1.6605;0.9078;0.525;0.7655;136.037;-12.86;21.49;-39.19;14.74;-26.6;-4.86;2.0;1003.83;13.705;30.281076;-97.70932;478.77;532.4035811898309;;0.0;34.580647;;19 / 20;868;2018-02-21 20:29:59:717
-1.4913;3.6595;11.2254;0.4956;5.3069;8.2358;-0.3981;-0.8549;1.6605;0.9078;0.525;0.7655;136.037;-12.86;21.49;-39.19;14.74;-26.6;-4.86;2.0;1003.83;13.705;30.281076;-97.70932;478.77;532.4035811898309;;0.0;34.580647;;19 / 20;877;2018-02-21 20:29:59:726
-1.4074;3.555;5.0666;0.4956;5.3069;8.2358;-0.3981;-0.8549;1.6605;0.9078;0.525;0.7655;136.037;-12.86;21.49;-39.19;14.74;-26.6;-4.86;2.0;1003.83;13.705;30.281076;-97.70932;478.77;532.4035811898309;;0.0;34.580647;;19 / 20;888;2018-02-21 20:29:59:737
-1.4074;3.555;5.0666;0.4956;5.3069;8.2358;-0.3981;-0.8549;1.6605;0.9078;0.525;0.7655;136.037;-13.41;21.69;-39.74;14.62;-32.75;-3.44;2.0;1003.83;13.705;30.281076;-97.70932;478.77;532.4035811898309;;0.0;34.580647;;19 / 20;897;2018-02-21 20:29:59:746
-1.4074;3.555;5.0666;0.4956;5.3069;8.2358;-0.3981;-0.8549;1.6605;0.9078;0.525;0.7655;136.037;-13.41;21.69;-39.74;14.62;-32.75;-3.44;2.0;1003.83;13.705;30.281076;-97.70932;478.77;532.4035811898309;;0.0;34.580647;;19 / 20;908;2018-02-21 20:29:59:757
-1.4074;3.555;5.0666;0.4956;5.3069;8.2358;-0.3981;-0.8549;1.6605;0.9078;0.525;0.7655;136.037;-13.41;21.69;-39.74;14.62;-32.75;-3.44;2.0;1003.83;13.705;30.281076;-97.70932;478.77;532.4035811898309;;0.0;34.580647;;19 / 20;917;2018-02-21 20:29:59:766
-1.4074;3.555;5.0666;0.4956;5.3069;8.2358;-0.3981;-0.8549;1.6605;0.9078;0.525;0.7655;136.037;-13.41;21.69;-39.74;14.62;-32.75;-3.44;2.0;1003.83;13.705;30.281076;-97.70932;478.77;532.4035811898309;;0.0;34.580647;;19 / 20;928;2018-02-21 20:29:59:777
-1.4074;3.555;5.0666;0.4956;5.3069;8.2358;-0.3981;-0.8549;1.6605;0.9078;0.525;0.7655;136.037;-13.41;21.69;-39.74;14.62;-32.75;-3.44;2.0;1003.83;13.705;30.281076;-97.70932;478.77;532.4035811898309;;0.0;34.580647;;19 / 20;937;2018-02-21 20:29:59:786
-1.4074;3.555;5.0666;0.9978;4.0238;8.891;-0.3981;-0.8549;1.6605;0.9078;0.525;0.7655;136.037;-13.41;21.69;-39.74;14.62;-32.75;-3.44;2.0;1003.83;13.705;30.281076;-97.70932;478.77;532.4035811898309;;0.0;34.580647;;19 / 20;948;2018-02-21 20:29:59:797
-1.4074;3.555;5.0666;0.9978;4.0238;8.891;-3.023;-0.7383;0.0242;-1.3866;2.86;4.2421;136.037;-13.41;21.69;-39.74;14.62;-32.75;-3.44;2.0;1003.83;13.705;30.281076;-97.70932;478.77;532.4035811898309;;0.0;34.580647;;19 / 20;958;2018-02-21 20:29:59:807
-1.4074;3.555;5.0666;0.9978;4.0238;8.891;-3.023;-0.7383;0.0242;-1.3866;2.86;4.2421;136.037;-13.41;21.69;-39.74;14.62;-32.75;-3.44;2.0;1003.83;13.705;30.281076;-97.70932;478.77;532.4035811898309;;0.0;34.580647;;19 / 20;967;2018-02-21 20:29:59:816
-1.4074;3.555;5.0666;0.9978;4.0238;8.891;-3.023;-0.7383;0.0242;-1.3866;2.86;4.2421;136.037;-13.41;21.69;-39.74;14.62;-32.75;-3.44;2.0;1003.83;13.705;30.281076;-97.70932;478.77;532.4035811898309;;0.0;34.580647;;19 / 20;978;2018-02-21 20:29:59:827
-1.4074;3.555;5.0666;0.9978;4.0238;8.891;-3.023;-0.7383;0.0242;-1.3866;2.86;4.2421;136.037;-13.41;21.69;-39.74;14.62;-32.75;-3.44;2.0;1003.83;26.744;30.281076;-97.70932;478.77;532.4035811898309;;0.0;34.580647;;19 / 20;987;2018-02-21 20:29:59:836
-1.4074;3.555;5.0666;0.9978;4.0238;8.891;-3.023;-0.7383;0.0242;-1.3866;2.86;4.2421;136.037;-13.41;21.69;-39.74;14.62;-32.75;-3.44;2.0;1003.83;26.744;30.281076;-97.70932;478.77;532.4035811898309;;0.0;34.580647;;19 / 20;998;2018-02-21 20:29:59:847
-1.4074;3.555;5.0666;0.9978;4.0238;8.891;-3.023;-0.7383;0.0242;-1.3866;2.86;4.2421;136.037;-0.96;34.84;-44.69;355.43;-24.22;-6.4;2.0;1003.83;26.744;30.281076;-97.70932;478.77;532.4035811898309;;0.0;34.580647;;19 / 20;1008;2018-02-21 20:29:59:857
-1.4074;3.555;5.0666;0.9978;4.0238;8.891;-3.023;-0.7383;0.0242;-1.3866;2.86;4.2421;136.037;-0.96;34.84;-44.69;355.43;-24.22;-6.4;2.0;1003.83;26.744;30.281076;-97.70932;478.77;532.4035811898309;;0.0;34.580647;;19 / 20;1017;2018-02-21 20:29:59:866
3.8109;4.6418;8.8101;0.9978;4.0238;8.891;-3.023;-0.7383;0.0242;-1.3866;2.86;4.2421;136.037;-0.96;34.84;-44.69;355.43;-24.22;-6.4;2.0;1003.83;26.744;30.281076;-97.70932;478.77;532.4035811898309;;0.0;34.580647;;19 / 20;1027;2018-02-21 20:29:59:876
3.8109;4.6418;8.8101;0.9978;4.0238;8.891;-3.023;-0.7383;0.0242;-1.3866;2.86;4.2421;136.037;-0.96;34.84;-44.69;355.43;-24.22;-6.4;2.0;1003.83;26.744;30.281076;-97.70932;478.77;532.4035811898309;;0.0;34.580647;;19 / 20;1038;2018-02-21 20:29:59:887
3.8109;4.6418;8.8101;0.9978;4.0238;8.891;-3.023;-0.7383;0.0242;-1.3866;2.86;4.2421;136.037;-0.96;34.84;-44.69;355.43;-24.22;-6.4;2.0;1003.83;26.744;30.281076;-97.70932;478.77;532.4035811898309;;0.0;34.580647;;19 / 20;1048;2018-02-21 20:29:59:897
3.8109;4.6418;8.8101;0.9978;4.0238;8.891;-3.023;-0.7383;0.0242;-1.3866;2.86;4.2421;136.037;-0.96;34.84;-44.69;355.43;-24.22;-6.4;2.0;1003.83;26.744;30.281076;-97.70932;478.77;532.4035811898309;;0.0;34.580647;;19 / 20;1057;2018-02-21 20:29:59:906
3.8109;4.6418;8.8101;0.9978;4.0238;8.891;-3.023;-0.7383;0.0242;-1.3866;2.86;4.2421;136.037;-0.96;34.84;-44.69;355.43;-24.22;-6.4;2.0;1003.85;26.744;30.281076;-97.70932;478.77;532.4035811898309;;0.0;34.580647;;19 / 20;1068;2018-02-21 20:29:59:917
3.8109;4.6418;8.8101;0.7869;4.088;8.8829;-3.7784;0.0068;-2.6289;0.0426;-0.7642;1.9417;136.037;-0.96;34.84;-44.69;355.43;-24.22;-6.4;2.0;1003.85;26.744;30.281076;-97.70932;478.77;532.4035811898309;;0.0;34.580647;;19 / 20;1077;2018-02-21 20:29:59:926
3.8109;4.6418;8.8101;0.7869;4.088;8.8829;-3.7784;0.0068;-2.6289;0.0426;-0.7642;1.9417;136.037;-0.96;34.84;-44.69;355.43;-24.22;-6.4;2.0;1003.85;26.744;30.281076;-97.70932;478.77;532.4035811898309;;0.0;34.580647;;19 / 20;1088;2018-02-21 20:29:59:937
3.8109;4.6418;8.8101;0.7869;4.088;8.8829;-3.7784;0.0068;-2.6289;0.0426;-0.7642;1.9417;136.037;-0.96;34.84;-44.69;355.43;-24.22;-6.4;2.0;1003.85;26.744;30.281076;-97.70932;478.77;532.4035811898309;;0.0;34.580647;;19 / 20;1097;2018-02-21 20:29:59:946
3.8109;4.6418;8.8101;0.7869;4.088;8.8829;-3.7784;0.0068;-2.6289;0.0426;-0.7642;1.9417;136.037;-0.96;34.84;-44.69;355.43;-24.22;-6.4;2.0;1003.85;26.744;30.281076;-97.70932;478.77;532.4035811898309;;0.0;34.580647;;19 / 20;1107;2018-02-21 20:29:59:956
3.8109;4.6418;8.8101;0.7869;4.088;8.8829;-3.7784;0.0068;-2.6289;0.0426;-0.7642;1.9417;136.037;-0.96;34.84;-44.69;355.43;-24.22;-6.4;2.0;1003.85;26.744;30.281076;-97.70932;478.77;532.4035811898309;;0.0;34.580647;;19 / 20;1118;2018-02-21 20:29:59:967
3.8109;4.6418;8.8101;0.7869;4.088;8.8829;-3.7784;0.0068;-2.6289;0.0426;-0.7642;1.9417;136.037;3.29;37.84;-48.04;352.43;-24.63;-5.06;2.0;1003.85;26.744;30.281076;-97.70932;478.77;532.4035811898309;;0.0;34.580647;;19 / 20;1127;2018-02-21 20:29:59:976
3.8109;4.6418;8.8101;0.7869;4.088;8.8829;-3.7784;0.0068;-2.6289;0.0426;-0.7642;1.9417;136.037;3.29;37.84;-48.04;352.43;-24.63;-5.06;2.0;1003.85;26.744;30.281076;-97.70932;478.77;532.4035811898309;;0.0;34.580647;;19 / 20;1138;2018-02-21 20:29:59:987
3.8109;4.6418;8.8101;0.7869;4.088;8.8829;-3.7784;0.0068;-2.6289;0.0426;-0.7642;1.9417;136.037;3.29;37.84;-48.04;352.43;-24.63;-5.06;2.0;1003.85;26.744;30.281076;-97.70932;478.77;532.4035811898309;;0.0;34.580647;;19 / 20;1148;2018-02-21 20:29:59:997
3.8109;4.6418;8.8101;0.7869;4.088;8.8829;-3.7784;0.0068;-2.6289;0.0426;-0.7642;1.9417;136.037;3.29;37.84;-48.04;352.43;-24.63;-5.06;2.0;1003.85;26.744;30.281076;-97.70932;478.77;532.4035811898309;;0.0;34.580647;;19 / 20;1157;2018-02-21 20:30:00:006
2.7294;3.2877;10.7774;0.7869;4.088;8.8829;-3.7784;0.0068;-2.6289;0.0426;-0.7642;1.9417;136.037;3.29;37.84;-48.04;352.43;-24.63;-5.06;2.0;1003.85;26.744;30.281076;-97.70932;478.77;532.4035811898309;;0.0;34.580647;;19 / 20;1168;2018-02-21 20:30:00:017
2.7294;3.2877;10.7774;0.7869;4.088;8.8829;-3.7784;0.0068;-2.6289;0.0426;-0.7642;1.9417;136.037;3.29;37.84;-48.04;352.43;-24.63;-5.06;2.0;1003.85;26.744;30.281076;-97.70932;478.77;532.4035811898309;;0.0;34.580647;;19 / 20;1178;2018-02-21 20:30:00:027
2.7294;3.2877;10.7774;0.7869;4.088;8.8829;0.7293;0.9983;1.961;0.0426;-0.7642;1.9417;136.037;3.29;37.84;-48.04;352.43;-24.63;-5.06;2.0;1003.85;26.744;30.281076;-97.70932;478.77;532.4035811898309;;0.0;34.580647;;19 / 20;1188;2018-02-21 20:30:00:037
2.7294;3.2877;10.7774;2.2598;3.6103;8.8372;0.7293;0.9983;1.961;0.0426;-0.7642;1.9417;136.037;3.29;37.84;-48.04;352.43;-24.63;-5.06;2.0;1003.85;26.744;30.281076;-97.70932;478.77;532.4035811898309;;0.0;34.580647;;19 / 20;1198;2018-02-21 20:30:00:047
2.7294;3.2877;10.7774;2.2598;3.6103;8.8372;0.7293;0.9983;1.961;0.3635;-0.3266;3.3436;136.037;3.29;37.84;-48.04;352.43;-24.63;-5.06;2.0;1003.85;26.744;30.281076;-97.70932;478.77;532.4035811898309;;0.0;34.580647;;19 / 20;1208;2018-02-21 20:30:00:057
2.7294;3.2877;10.7774;2.2598;3.6103;8.8372;0.7293;0.9983;1.961;0.3635;-0.3266;3.3436;136.037;3.29;37.84;-48.04;352.43;-24.63;-5.06;2.0;1003.85;26.744;30.281076;-97.70932;478.77;532.4035811898309;;0.0;34.580647;;19 / 20;1217;2018-02-21 20:30:00:066
2.7294;3.2877;10.7774;2.2598;3.6103;8.8372;0.7293;0.9983;1.961;0.3635;-0.3266;3.3436;136.037;3.29;37.84;-48.04;352.43;-24.63;-5.06;2.0;1003.85;26.744;30.281076;-97.70932;478.77;532.4035811898309;;0.0;34.580647;;19 / 20;1228;2018-02-21 20:30:00:077
2.7294;3.2877;10.7774;2.2598;3.6103;8.8372;0.7293;0.9983;1.961;0.3635;-0.3266;3.3436;136.037;4.74;39.94;-49.39;342.6;-21.59;-14.34;2.0;1003.85;26.744;30.281076;-97.70932;478.77;532.4035811898309;;0.0;34.580647;;19 / 20;1237;2018-02-21 20:30:00:086
2.7294;3.2877;10.7774;2.2598;3.6103;8.8372;0.7293;0.9983;1.961;0.3635;-0.3266;3.3436;136.037;4.74;39.94;-49.39;342.6;-21.59;-14.34;2.0;1003.85;26.744;30.281076;-97.70932;478.77;532.4035811898309;;0.0;34.580647;;19 / 20;1248;2018-02-21 20:30:00:097
2.7294;3.2877;10.7774;2.2598;3.6103;8.8372;0.7293;0.9983;1.961;0.3635;-0.3266;3.3436;136.037;4.74;39.94;-49.39;342.6;-21.59;-14.34;2.0;1003.85;26.744;30.281076;-97.70932;478.77;532.4035811898309;;0.0;34.580647;;19 / 20;1258;2018-02-21 20:30:00:107
2.7294;3.2877;10.7774;2.2598;3.6103;8.8372;0.7293;0.9983;1.961;0.3635;-0.3266;3.3436;136.037;4.74;39.94;-49.39;342.6;-21.59;-14.34;2.0;1003.84;26.744;30.281076;-97.70932;478.77;532.4035811898309;;0.0;34.580647;;19 / 20;1267;2018-02-21 20:30:00:116
2.7294;3.2877;10.7774;2.2598;3.6103;8.8372;0.7293;0.9983;1.961;0.3635;-0.3266;3.3436;136.037;4.74;39.94;-49.39;342.6;-21.59;-14.34;2.0;1003.84;26.744;30.281076;-97.70932;478.77;532.4035811898309;;0.0;34.580647;;19 / 20;1278;2018-02-21 20:30:00:127
2.7294;3.2877;10.7774;2.2598;3.6103;8.8372;0.7293;0.9983;1.961;0.3635;-0.3266;3.3436;136.037;4.74;39.94;-49.39;342.6;-21.59;-14.34;2.0;1003.84;36.238;30.281076;-97.70932;478.77;532.4035811898309;;0.0;34.580647;;19 / 20;1287;2018-02-21 20:30:00:136
2.7294;3.2877;10.7774;2.2598;3.6103;8.8372;0.7293;0.9983;1.961;0.3635;-0.3266;3.3436;136.037;4.74;39.94;-49.39;342.6;-21.59;-14.34;2.0;1003.84;36.238;30.281076;-97.70932;478.77;532.4035811898309;;0.0;34.580647;;19 / 20;1298;2018-02-21 20:30:00:147
4.8337;2.569;8.0839;2.2598;3.6103;8.8372;1.7033;-3.2761;-0.1466;0.3635;-0.3266;3.3436;136.037;4.74;39.94;-49.39;342.6;-21.59;-14.34;2.0;1003.84;36.238;30.281076;-97.70932;478.77;532.4035811898309;;0.0;34.580647;;19 / 20;1307;2018-02-21 20:30:00:156
4.8337;2.569;8.0839;2.2598;3.6103;8.8372;1.7033;-3.2761;-0.1466;0.3635;-0.3266;3.3436;136.037;4.74;39.94;-49.39;342.6;-21.59;-14.34;2.0;1003.84;36.238;30.281076;-97.70932;478.77;532.4035811898309;;0.0;34.580647;;19 / 20;1318;2018-02-21 20:30:00:167
4.8337;2.569;8.0839;4.6193;4.0249;7.6615;1.7033;-3.2761;-0.1466;2.2057;-0.0423;3.0332;136.037;4.74;39.94;-49.39;342.6;-21.59;-14.34;2.0;1003.84;36.238;30.281076;-97.70932;478.77;532.4035811898309;;0.0;34.580647;;19 / 20;1327;2018-02-21 20:30:00:176
4.8337;2.569;8.0839;4.6193;4.0249;7.6615;1.7033;-3.2761;-0.1466;2.2057;-0.0423;3.0332;136.037;4.74;39.94;-49.39;342.6;-21.59;-14.34;2.0;1003.84;36.238;30.281076;-97.70932;478.77;532.4035811898309;;0.0;34.580647;;19 / 20;1338;2018-02-21 20:30:00:187
4.8337;2.569;8.0839;4.6193;4.0249;7.6615;1.7033;-3.2761;-0.1466;2.2057;-0.0423;3.0332;136.037;4.74;39.94;-49.39;342.6;-21.59;-14.34;2.0;1003.84;36.238;30.281076;-97.70932;478.77;532.4035811898309;;0.0;34.580647;;19 / 20;1347;2018-02-21 20:30:00:196
4.8337;2.569;8.0839;4.6193;4.0249;7.6615;1.7033;-3.2761;-0.1466;2.2057;-0.0423;3.0332;136.037;6.74;30.79;-51.74;323.91;-24.22;-31.09;2.0;1003.84;36.238;30.281076;-97.70932;478.77;532.4035811898309;;0.0;34.580647;;19 / 20;1358;2018-02-21 20:30:00:207
4.8337;2.569;8.0839;4.6193;4.0249;7.6615;1.7033;-3.2761;-0.1466;2.2057;-0.0423;3.0332;136.037;6.74;30.79;-51.74;323.91;-24.22;-31.09;2.0;1003.84;36.238;30.281076;-97.70932;478.77;532.4035811898309;;0.0;34.580647;;19 / 20;1367;2018-02-21 20:30:00:216
4.8337;2.569;8.0839;4.6193;4.0249;7.6615;1.7033;-3.2761;-0.1466;2.2057;-0.0423;3.0332;136.037;6.74;30.79;-51.74;323.91;-24.22;-31.09;2.0;1003.84;36.238;30.281076;-97.70932;478.77;532.4035811898309;;0.0;34.580647;;19 / 20;1378;2018-02-21 20:30:00:227
4.8337;2.569;8.0839;4.6193;4.0249;7.6615;1.7033;-3.2761;-0.1466;2.2057;-0.0423;3.0332;136.037;6.74;30.79;-51.74;323.91;-24.22;-31.09;2.0;1003.84;36.238;30.281076;-97.70932;478.77;532.4035811898309;;0.0;34.580647;;19 / 20;1387;2018-02-21 20:30:00:236
4.8337;2.569;8.0839;4.6193;4.0249;7.6615;1.7033;-3.2761;-0.1466;2.2057;-0.0423;3.0332;136.037;6.74;30.79;-51.74;323.91;-24.22;-31.09;2.0;1003.84;36.238;30.281076;-97.70932;478.77;532.4035811898309;;0.0;34.580647;;19 / 20;1398;2018-02-21 20:30:00:247
4.8337;2.569;8.0839;4.6193;4.0249;7.6615;1.7033;-3.2761;-0.1466;2.2057;-0.0423;3.0332;136.037;6.74;30.79;-51.74;323.91;-24.22;-31.09;2.0;1003.84;36.238;30.281076;-97.70932;478.77;532.4035811898309;;0.0;34.580647;;19 / 20;1408;2018-02-21 20:30:00:257
4.8337;2.569;8.0839;4.6193;4.0249;7.6615;-0.912;-1.1685;2.482;2.2057;-0.0423;3.0332;136.037;6.74;30.79;-51.74;323.91;-24.22;-31.09;2.0;1003.84;36.238;30.281076;-97.70932;478.77;532.4035811898309;;0.0;34.580647;;19 / 20;1417;2018-02-21 20:30:00:266
4.8337;2.569;8.0839;4.6193;4.0249;7.6615;-0.912;-1.1685;2.482;2.2057;-0.0423;3.0332;136.037;6.74;30.79;-51.74;323.91;-24.22;-31.09;2.0;1003.84;36.238;30.281076;-97.70932;478.77;532.4035811898309;;0.0;34.580647;;19 / 20;1428;2018-02-21 20:30:00:277
4.8337;2.569;8.0839;4.6193;4.0249;7.6615;-0.912;-1.1685;2.482;2.2057;-0.0423;3.0332;136.037;6.74;30.79;-51.74;323.91;-24.22;-31.09;2.0;1003.84;36.238;30.281076;-97.70932;478.77;532.4035811898309;;0.0;34.580647;;19 / 20;1438;2018-02-21 20:30:00:287
6.1129;8.0295;7.974;5.0456;4.2139;7.2815;-0.912;-1.1685;2.482;2.2057;-0.0423;3.0332;136.037;6.74;30.79;-51.74;323.91;-24.22;-31.09;2.0;1003.84;36.238;30.281076;-97.70932;478.77;532.4035811898309;;0.0;34.580647;;19 / 20;1448;2018-02-21 20:30:00:297
6.1129;8.0295;7.974;5.0456;4.2139;7.2815;-0.912;-1.1685;2.482;-0.626;-0.3261;0.5804;136.037;6.74;30.79;-51.74;323.91;-24.22;-31.09;2.0;1003.84;36.238;30.281076;-97.70932;478.77;532.4035811898309;;0.0;34.580647;;19 / 20;1458;2018-02-21 20:30:00:307
6.1129;8.0295;7.974;5.0456;4.2139;7.2815;-0.912;-1.1685;2.482;-0.626;-0.3261;0.5804;136.037;2.54;28.19;-51.29;323.48;-25.44;-34.72;2.0;1003.8;36.238;30.281076;-97.70932;478.77;532.4035811898309;;0.0;34.580647;;19 / 20;1467;2018-02-21 20:30:00:316
6.1129;8.0295;7.974;5.0456;4.2139;7.2815;-0.912;-1.1685;2.482;-0.626;-0.3261;0.5804;136.037;2.54;28.19;-51.29;323.48;-25.44;-34.72;2.0;1003.8;36.238;30.281076;-97.70932;478.77;532.4035811898309;;0.0;34.580647;;19 / 20;1478;2018-02-21 20:30:00:327
6.1129;8.0295;7.974;5.0456;4.2139;7.2815;-0.912;-1.1685;2.482;-0.626;-0.3261;0.5804;136.037;2.54;28.19;-51.29;323.48;-25.44;-34.72;2.0;1003.8;36.238;30.281076;-97.70932;478.77;532.4035811898309;;0.0;34.580647;;19 / 20;1488;2018-02-21 20:30:00:337
6.1129;8.0295;7.974;5.0456;4.2139;7.2815;-0.912;-1.1685;2.482;-0.626;-0.3261;0.5804;136.037;2.54;28.19;-51.29;323.48;-25.44;-34.72;2.0;1003.8;36.238;30.281076;-97.70932;478.77;532.4035811898309;;0.0;34.580647;;19 / 20;1497;2018-02-21 20:30:00:346
6.1129;8.0295;7.974;5.0456;4.2139;7.2815;-0.912;-1.1685;2.482;-0.626;-0.3261;0.5804;136.037;2.54;28.19;-51.29;323.48;-25.44;-34.72;2.0;1003.8;36.238;30.281076;-97.70932;478.77;532.4035811898309;;0.0;34.580647;;19 / 20;1508;2018-02-21 20:30:00:357
6.1129;8.0295;7.974;5.0456;4.2139;7.2815;-0.912;-1.1685;2.482;-0.626;-0.3261;0.5804;136.037;2.54;28.19;-51.29;323.48;-25.44;-34.72;2.0;1003.8;36.238;30.281076;-97.70932;478.77;532.4035811898309;;0.0;34.580647;;19 / 20;1518;2018-02-21 20:30:00:367
6.1129;8.0295;7.974;5.0456;4.2139;7.2815;-0.912;-1.1685;2.482;-0.626;-0.3261;0.5804;136.037;2.54;28.19;-51.29;323.48;-25.44;-34.72;2.0;1003.8;36.238;30.281076;-97.70932;478.77;532.4035811898309;;0.0;34.580647;;19 / 20;1527;2018-02-21 20:30:00:376
6.1129;8.0295;7.974;5.0456;4.2139;7.2815;3.0682;-2.5233;6.2596;-0.626;-0.3261;0.5804;136.037;2.54;28.19;-51.29;323.48;-25.44;-34.72;2.0;1003.8;36.238;30.281076;-97.70932;478.77;532.4035811898309;;0.0;34.580647;;19 / 20;1538;2018-02-21 20:30:00:387
6.1129;8.0295;7.974;5.0456;4.2139;7.2815;3.0682;-2.5233;6.2596;-0.626;-0.3261;0.5804;136.037;2.54;28.19;-51.29;323.48;-25.44;-34.72;2.0;1003.8;36.238;30.281076;-97.70932;478.77;532.4035811898309;;0.0;34.580647;;19 / 20;1548;2018-02-21 20:30:00:397
6.1129;8.0295;7.974;5.0456;4.2139;7.2815;3.0682;-2.5233;6.2596;-0.626;-0.3261;0.5804;136.037;2.54;28.19;-51.29;323.48;-25.44;-34.72;2.0;1003.8;36.238;30.281076;-97.70932;478.77;532.4035811898309;;0.0;34.580647;;19 / 20;1557;2018-02-21 20:30:00:406
6.1129;8.0295;7.974;5.0456;4.2139;7.2815;3.0682;-2.5233;6.2596;-0.626;-0.3261;0.5804;136.037;2.54;28.19;-51.29;323.48;-25.44;-34.72;2.0;1003.8;36.238;30.281076;-97.70932;478.77;532.4035811898309;;0.0;34.580647;;17 / 20;1567;2018-02-21 20:30:00:416
3.4336;6.0387;1.0006;6.5153;4.4788;5.8075;3.0682;-2.5233;6.2596;2.1071;-1.7601;0.0874;136.037;2.54;28.19;-51.29;323.48;-25.44;-34.72;2.0;1003.8;36.238;30.281076;-97.70932;478.77;532.4035811898309;;0.0;34.580647;;17 / 20;1578;2018-02-21 20:30:00:427
3.4336;6.0387;1.0006;6.5153;4.4788;5.8075;3.0682;-2.5233;6.2596;2.1071;-1.7601;0.0874;136.037;-4.26;29.74;-50.44;321.29;-27.17;-48.29;2.0;1003.8;36.238;30.281076;-97.70932;478.77;532.4035811898309;;0.0;34.580647;;17 / 20;1587;2018-02-21 20:30:00:436
3.4336;6.0387;1.0006;6.5153;4.4788;5.8075;3.0682;-2.5233;6.2596;2.1071;-1.7601;0.0874;136.037;-4.26;29.74;-50.44;321.29;-27.17;-48.29;2.0;1003.8;36.238;30.281076;-97.70932;478.77;532.4035811898309;;0.0;34.580647;;17 / 20;1598;2018-02-21 20:30:00:447
3.4336;6.0387;1.0006;6.5153;4.4788;5.8075;3.0682;-2.5233;6.2596;2.1071;-1.7601;0.0874;136.037;-4.26;29.74;-50.44;321.29;-27.17;-48.29;2.0;1003.8;36.238;30.281076;-97.70932;478.77;532.4035811898309;;0.0;34.580647;;17 / 20;1607;2018-02-21 20:30:00:456
3.4336;6.0387;1.0006;6.5153;4.4788;5.8075;3.0682;-2.5233;6.2596;2.1071;-1.7601;0.0874;136.037;-4.26;29.74;-50.44;321.29;-27.17;-48.29;2.0;1003.8;19.359;30.281076;-97.70932;478.77;532.4035811898309;;0.0;34.580647;;17 / 20;1618;2018-02-21 20:30:00:467
3.4336;6.0387;1.0006;6.5153;4.4788;5.8075;3.0682;-2.5233;6.2596;2.1071;-1.7601;0.0874;136.037;-4.26;29.74;-50.44;321.29;-27.17;-48.29;2.0;1003.8;19.359;30.281076;-97.70932;478.77;532.4035811898309;;0.0;34.580647;;17 / 20;1628;2018-02-21 20:30:00:477
3.4336;6.0387;1.0006;6.5153;4.4788;5.8075;3.0682;-2.5233;6.2596;2.1071;-1.7601;0.0874;136.037;-4.26;29.74;-50.44;321.29;-27.17;-48.29;2.0;1003.8;19.359;30.281076;-97.70932;478.77;532.4035811898309;;0.0;34.580647;;17 / 20;1638;2018-02-21 20:30:00:487
3.4336;6.0387;1.0006;6.5153;4.4788;5.8075;5.8662;-3.8823;1.6328;2.1071;-1.7601;0.0874;136.037;-4.26;29.74;-50.44;321.29;-27.17;-48.29;2.0;1003.8;19.359;30.281076;-97.70932;478.77;532.4035811898309;;0.0;34.580647;;17 / 20;1647;2018-02-21 20:30:00:496
3.4336;6.0387;1.0006;6.5153;4.4788;5.8075;5.8662;-3.8823;1.6328;2.1071;-1.7601;0.0874;136.037;-4.26;29.74;-50.44;321.29;-27.17;-48.29;2.0;1003.8;19.359;30.281076;-97.70932;478.77;532.4035811898309;;0.0;34.580647;;17 / 20;1658;2018-02-21 20:30:00:507
3.4336;6.0387;1.0006;6.5153;4.4788;5.8075;5.8662;-3.8823;1.6328;2.1071;-1.7601;0.0874;136.037;-4.26;29.74;-50.44;321.29;-27.17;-48.29;0.0;1003.78;19.359;30.281076;-97.70932;478.77;532.4035811898309;;0.0;34.580647;;17 / 20;1668;2018-02-21 20:30:00:517
3.4336;6.0387;1.0006;6.5153;4.4788;5.8075;5.8662;-3.8823;1.6328;2.1071;-1.7601;0.0874;136.037;-4.26;29.74;-50.44;321.29;-27.17;-48.29;0.0;1003.78;19.359;30.281076;-97.70932;478.77;532.4035811898309;;0.0;34.580647;;17 / 20;1677;2018-02-21 20:30:00:526
3.4336;6.0387;1.0006;6.5153;4.4788;5.8075;5.8662;-3.8823;1.6328;2.1071;-1.7601;0.0874;136.037;-4.26;29.74;-50.44;321.29;-27.17;-48.29;0.0;1003.78;19.359;30.281076;-97.70932;478.77;532.4035811898309;;0.0;34.580647;;17 / 20;1688;2018-02-21 20:30:00:537
3.4336;6.0387;1.0006;5.7127;7.7901;1.7072;5.8662;-3.8823;1.6328;2.1071;-1.7601;0.0874;136.037;-13.66;11.59;-53.59;315.78;-27.17;-48.29;0.0;1003.78;19.359;30.281076;-97.70932;478.77;532.4035811898309;;0.0;34.580647;;17 / 20;1697;2018-02-21 20:30:00:546
3.4336;6.0387;1.0006;5.7127;7.7901;1.7072;5.8662;-3.8823;1.6328;3.1312;-2.7643;-3.8175;136.037;-13.66;11.59;-53.59;315.78;-27.17;-48.29;0.0;1003.78;19.359;30.281076;-97.70932;478.77;532.4035811898309;;0.0;34.580647;;17 / 20;1708;2018-02-21 20:30:00:557
0.8562;9.8718;2.0076;5.7127;7.7901;1.7072;5.8662;-3.8823;1.6328;3.1312;-2.7643;-3.8175;136.037;-13.66;11.59;-53.59;315.78;-27.17;-48.29;0.0;1003.78;19.359;30.281076;-97.70932;478.77;532.4035811898309;;0.0;34.580647;;17 / 20;1717;2018-02-21 20:30:00:566
0.8562;9.8718;2.0076;5.7127;7.7901;1.7072;5.8662;-3.8823;1.6328;3.1312;-2.7643;-3.8175;136.037;-13.66;11.59;-53.59;315.78;-27.17;-48.29;0.0;1003.78;19.359;30.281076;-97.70932;478.77;532.4035811898309;;0.0;34.580647;;17 / 20;1728;2018-02-21 20:30:00:577
0.8562;9.8718;2.0076;5.7127;7.7901;1.7072;5.8662;-3.8823;1.6328;3.1312;-2.7643;-3.8175;136.037;-13.66;11.59;-53.59;315.78;-27.17;-48.29;0.0;1003.78;19.359;30.281076;-97.70932;478.77;532.4035811898309;;0.0;34.580647;;17 / 20;1738;2018-02-21 20:30:00:587
0.8562;9.8718;2.0076;5.7127;7.7901;1.7072;5.8662;-3.8823;1.6328;3.1312;-2.7643;-3.8175;136.037;-13.66;11.59;-53.59;315.78;-27.17;-48.29;0.0;1003.78;19.359;30.281076;-97.70932;478.77;532.4035811898309;;0.0;34.580647;;17 / 20;1748;2018-02-21 20:30:00:597
0.8562;9.8718;2.0076;5.7127;7.7901;1.7072;5.8662;-3.8823;1.6328;3.1312;-2.7643;-3.8175;136.037;-13.66;11.59;-53.59;315.78;-27.17;-48.29;0.0;1003.78;19.359;30.281076;-97.70932;478.77;532.4035811898309;;0.0;34.580647;;17 / 20;1757;2018-02-21 20:30:00:606
0.8562;9.8718;2.0076;5.7127;7.7901;1.7072;-10.6509;-1.3845;-9.8285;3.1312;-2.7643;-3.8175;136.037;-13.66;11.59;-53.59;315.78;-27.17;-48.29;0.0;1003.78;19.359;30.281076;-97.70932;478.77;532.4035811898309;;0.0;34.580647;;17 / 20;1768;2018-02-21 20:30:00:617
0.8562;9.8718;2.0076;5.7127;7.7901;1.7072;-10.6509;-1.3845;-9.8285;3.1312;-2.7643;-3.8175;136.037;-13.66;11.59;-53.59;315.78;-27.17;-48.29;0.0;1003.78;19.359;30.281076;-97.70932;478.77;532.4035811898309;;0.0;34.580647;;17 / 20;1778;2018-02-21 20:30:00:627
0.8562;9.8718;2.0076;5.7127;7.7901;1.7072;-10.6509;-1.3845;-9.8285;3.1312;-2.7643;-3.8175;136.037;-13.66;11.59;-53.59;315.78;-27.17;-48.29;0.0;1003.78;19.359;30.281076;-97.70932;478.77;532.4035811898309;;0.0;34.580647;;17 / 20;1787;2018-02-21 20:30:00:636
0.8562;9.8718;2.0076;5.7127;7.7901;1.7072;-10.6509;-1.3845;-9.8285;3.1312;-2.7643;-3.8175;136.037;-13.66;11.59;-53.59;315.78;-27.17;-48.29;0.0;1003.78;19.359;30.281076;-97.70932;478.77;532.4035811898309;;0.0;34.580647;;17 / 20;1798;2018-02-21 20:30:00:647
0.8562;9.8718;2.0076;5.7127;7.7901;1.7072;-10.6509;-1.3845;-9.8285;3.1312;-2.7643;-3.8175;136.037;-13.66;11.59;-53.59;315.78;-27.17;-48.29;0.0;1003.78;19.359;30.281076;-97.70932;478.77;532.4035811898309;;0.0;34.580647;;17 / 20;1807;2018-02-21 20:30:00:656
0.8562;9.8718;2.0076;5.7127;7.7901;1.7072;-10.6509;-1.3845;-9.8285;3.1312;-2.7643;-3.8175;136.037;-16.06;-4.56;-50.44;295.33;-52.57;-73.36;0.0;1003.78;19.359;30.281076;-97.70932;478.77;532.4035811898309;;0.0;34.580647;;17 / 20;1818;2018-02-21 20:30:00:667
0.8562;9.8718;2.0076;2.9832;9.3151;0.7525;-10.6509;-1.3845;-9.8285;-1.5811;-0.5232;-0.8046;136.037;-16.06;-4.56;-50.44;295.33;-52.57;-73.36;0.0;1003.78;19.359;30.281076;-97.70932;478.77;532.4035811898309;;0.0;34.580647;;17 / 20;1828;2018-02-21 20:30:00:677
0.8562;9.8718;2.0076;2.9832;9.3151;0.7525;-10.6509;-1.3845;-9.8285;-1.5811;-0.5232;-0.8046;136.037;-16.06;-4.56;-50.44;295.33;-52.57;-73.36;0.0;1003.78;19.359;30.281076;-97.70932;478.77;532.4035811898309;;0.0;34.580647;;17 / 20;1838;2018-02-21 20:30:00:687
0.8562;9.8718;2.0076;2.9832;9.3151;0.7525;-10.6509;-1.3845;-9.8285;-1.5811;-0.5232;-0.8046;136.037;-16.06;-4.56;-50.44;295.33;-52.57;-73.36;0.0;1003.78;19.359;30.281076;-97.70932;478.77;532.4035811898309;;0.0;34.580647;;17 / 20;1848;2018-02-21 20:30:00:697
14.1146;10.6487;6.2743;2.9832;9.3151;0.7525;-10.6509;-1.3845;-9.8285;-1.5811;-0.5232;-0.8046;28.603;-16.06;-4.56;-50.44;295.33;-52.57;-73.36;0.0;1003.78;19.359;30.281076;-97.70932;478.77;532.4035811898309;;0.0;34.580647;;17 / 20;1857;2018-02-21 20:30:00:706
14.1146;10.6487;6.2743;2.9832;9.3151;0.7525;-10.6509;-1.3845;-9.8285;-1.5811;-0.5232;-0.8046;28.603;-16.06;-4.56;-50.44;295.33;-52.57;-73.36;0.0;1003.81;19.359;30.281076;-97.70932;478.77;532.4035811898309;;0.0;34.580647;;17 / 20;1868;2018-02-21 20:30:00:717
14.1146;10.6487;6.2743;2.9832;9.3151;0.7525;-3.9315;2.1027;12.3686;-1.5811;-0.5232;-0.8046;28.603;-16.06;-4.56;-50.44;295.33;-52.57;-73.36;0.0;1003.81;19.359;30.281076;-97.70932;478.77;532.4035811898309;;0.0;34.580647;;17 / 20;1878;2018-02-21 20:30:00:727
14.1146;10.6487;6.2743;2.9832;9.3151;0.7525;-3.9315;2.1027;12.3686;-1.5811;-0.5232;-0.8046;28.603;-16.06;-4.56;-50.44;295.33;-52.57;-73.36;0.0;1003.81;19.359;30.281076;-97.70932;478.77;532.4035811898309;;0.0;34.580647;;17 / 20;1888;2018-02-21 20:30:00:737
14.1146;10.6487;6.2743;2.9832;9.3151;0.7525;-3.9315;2.1027;12.3686;-1.5811;-0.5232;-0.8046;28.603;-16.06;-4.56;-50.44;295.33;-52.57;-73.36;0.0;1003.81;19.359;30.281076;-97.70932;478.77;532.4035811898309;;0.0;34.580647;;17 / 20;1898;2018-02-21 20:30:00:747
14.1146;10.6487;6.2743;2.9832;9.3151;0.7525;-3.9315;2.1027;12.3686;-1.5811;-0.5232;-0.8046;28.603;-16.06;-4.56;-50.44;295.33;-52.57;-73.36;0.0;1003.81;19.359;30.281076;-97.70932;478.77;532.4035811898309;;0.0;34.580647;;17 / 20;1908;2018-02-21 20:30:00:757
14.1146;10.6487;6.2743;2.9832;9.3151;0.7525;-3.9315;2.1027;12.3686;-1.5811;-0.5232;-0.8046;28.603;-16.06;-4.56;-50.44;295.33;-52.57;-73.36;0.0;1003.81;19.359;30.281076;-97.70932;478.77;532.4035811898309;;0.0;34.580647;;17 / 20;1917;2018-02-21 20:30:00:766
14.1146;10.6487;6.2743;2.9832;9.3151;0.7525;-3.9315;2.1027;12.3686;-1.5811;-0.5232;-0.8046;28.603;-13.21;-2.66;-47.99;297.08;-71.72;-75.84;0.0;1003.81;19.359;30.281076;-97.70932;478.77;532.4035811898309;;0.0;34.580647;;17 / 20;1928;2018-02-21 20:30:00:777
14.1146;10.6487;6.2743;2.9832;9.3151;0.7525;-3.9315;2.1027;12.3686;-1.5811;-0.5232;-0.8046;28.603;-13.21;-2.66;-47.99;297.08;-71.72;-75.84;0.0;1003.81;19.359;30.281076;-97.70932;478.77;532.4035811898309;;0.0;34.580647;;17 / 20;1937;2018-02-21 20:30:00:786
14.1146;10.6487;6.2743;4.0189;8.9311;0.5655;-3.9315;2.1027;12.3686;-1.5811;-0.5232;-0.8046;28.603;-13.21;-2.66;-47.99;297.08;-71.72;-75.84;0.0;1003.81;54.581;30.281076;-97.70932;478.77;532.4035811898309;;0.0;34.580647;;17 / 20;1948;2018-02-21 20:30:00:797
14.1146;10.6487;6.2743;4.0189;8.9311;0.5655;-3.9315;2.1027;12.3686;-0.5645;-0.1593;1.1269;28.603;-13.21;-2.66;-47.99;297.08;-71.72;-75.84;0.0;1003.81;54.581;30.281076;-97.70932;478.77;532.4035811898309;;0.0;34.580647;;17 / 20;1958;2018-02-21 20:30:00:807
14.1146;10.6487;6.2743;4.0189;8.9311;0.5655;-3.9315;2.1027;12.3686;-0.5645;-0.1593;1.1269;28.603;-13.21;-2.66;-47.99;297.08;-71.72;-75.84;0.0;1003.81;54.581;30.281076;-97.70932;478.77;532.4035811898309;;0.0;34.580647;;17 / 20;1967;2018-02-21 20:30:00:816
14.1146;10.6487;6.2743;4.0189;8.9311;0.5655;-3.9315;2.1027;12.3686;-0.5645;-0.1593;1.1269;28.603;-13.21;-2.66;-47.99;297.08;-71.72;-75.84;0.0;1003.81;54.581;30.281076;-97.70932;478.77;532.4035811898309;;0.0;34.580647;;17 / 20;1978;2018-02-21 20:30:00:827
7.489;14.7883;-3.4763;4.0189;8.9311;0.5655;-3.9315;2.1027;12.3686;-0.5645;-0.1593;1.1269;28.603;-13.21;-2.66;-47.99;297.08;-71.72;-75.84;0.0;1003.81;54.581;30.281076;-97.70932;478.77;532.4035811898309;;0.0;34.580647;;17 / 20;1987;2018-02-21 20:30:00:836
7.489;14.7883;-3.4763;4.0189;8.9311;0.5655;-4.0289;1.6009;-4.1188;-0.5645;-0.1593;1.1269;28.603;-13.21;-2.66;-47.99;297.08;-71.72;-75.84;0.0;1003.81;54.581;30.281076;-97.70932;478.77;532.4035811898309;;0.0;34.580647;;17 / 20;1998;2018-02-21 20:30:00:847
7.489;14.7883;-3.4763;4.0189;8.9311;0.5655;-4.0289;1.6009;-4.1188;-0.5645;-0.1593;1.1269;28.603;-13.21;-2.66;-47.99;297.08;-71.72;-75.84;0.0;1003.81;54.581;30.281076;-97.70932;478.77;532.4035811898309;;0.0;34.580647;;17 / 20;2008;2018-02-21 20:30:00:857
7.489;14.7883;-3.4763;4.0189;8.9311;0.5655;-4.0289;1.6009;-4.1188;-0.5645;-0.1593;1.1269;28.603;-13.21;-2.66;-47.99;297.08;-71.72;-75.84;0.0;1003.81;54.581;30.281076;-97.70932;478.77;532.4035811898309;;0.0;34.580647;;17 / 20;2017;2018-02-21 20:30:00:866
7.489;14.7883;-3.4763;4.0189;8.9311;0.5655;-4.0289;1.6009;-4.1188;-0.5645;-0.1593;1.1269;28.603;-13.21;-2.66;-47.99;297.08;-71.72;-75.84;0.0;1003.81;54.581;30.281076;-97.70932;478.77;532.4035811898309;;0.0;34.580647;;17 / 20;2027;2018-02-21 20:30:00:876
7.489;14.7883;-3.4763;4.0189;8.9311;0.5655;-4.0289;1.6009;-4.1188;-0.5645;-0.1593;1.1269;28.603;-13.21;-2.66;-47.99;297.08;-71.72;-75.84;0.0;1003.81;54.581;30.281076;-97.70932;478.77;532.4035811898309;;0.0;34.580647;;17 / 20;2038;2018-02-21 20:30:00:887
7.489;14.7883;-3.4763;4.0189;8.9311;0.5655;-4.0289;1.6009;-4.1188;-0.5645;-0.1593;1.1269;28.603;-23.66;10.34;-47.04;306.3;-65.56;-81.99;0.0;1003.81;54.581;30.281076;-97.70932;478.77;532.4035811898309;;0.0;34.580647;;17 / 20;2047;2018-02-21 20:30:00:896
7.489;14.7883;-3.4763;4.0189;8.9311;0.5655;-4.0289;1.6009;-4.1188;-0.5645;-0.1593;1.1269;28.603;-23.66;10.34;-47.04;306.3;-65.56;-81.99;0.0;1003.81;54.581;30.281076;-97.70932;478.77;532.4035811898309;;0.0;34.580647;;17 / 20;2058;2018-02-21 20:30:00:907
7.489;14.7883;-3.4763;4.0189;8.9311;0.5655;-4.0289;1.6009;-4.1188;-0.5645;-0.1593;1.1269;28.603;-23.66;10.34;-47.04;306.3;-65.56;-81.99;0.0;1003.99;54.581;30.281076;-97.70932;478.77;532.4035811898309;;0.0;34.580647;;17 / 20;2067;2018-02-21 20:30:00:916
7.489;14.7883;-3.4763;5.505;7.6055;2.8438;-4.0289;1.6009;-4.1188;-2.4525;-0.0291;1.9908;28.603;-23.66;10.34;-47.04;306.3;-65.56;-81.99;0.0;1003.99;54.581;30.281076;-97.70932;478.77;532.4035811898309;;0.0;34.580647;;17 / 20;2078;2018-02-21 20:30:00:927
7.489;14.7883;-3.4763;5.505;7.6055;2.8438;-4.0289;1.6009;-4.1188;-2.4525;-0.0291;1.9908;28.603;-23.66;10.34;-47.04;306.3;-65.56;-81.99;0.0;1003.99;54.581;30.281076;-97.70932;478.77;532.4035811898309;;0.0;34.580647;;17 / 20;2087;2018-02-21 20:30:00:936
7.489;14.7883;-3.4763;5.505;7.6055;2.8438;-4.0289;1.6009;-4.1188;-2.4525;-0.0291;1.9908;28.603;-23.66;10.34;-47.04;306.3;-65.56;-81.99;0.0;1003.99;54.581;30.281076;-97.70932;478.77;532.4035811898309;;0.0;34.580647;;17 / 20;2098;2018-02-21 20:30:00:947
7.489;14.7883;-3.4763;5.505;7.6055;2.8438;12.8148;3.2678;3.18;-2.4525;-0.0291;1.9908;28.603;-23.66;10.34;-47.04;306.3;-65.56;-81.99;0.0;1003.99;54.581;30.281076;-97.70932;478.77;532.4035811898309;;0.0;34.580647;;17 / 20;2108;2018-02-21 20:30:00:957
7.489;14.7883;-3.4763;5.505;7.6055;2.8438;12.8148;3.2678;3.18;-2.4525;-0.0291;1.9908;28.603;-23.66;10.34;-47.04;306.3;-65.56;-81.99;0.0;1003.99;54.581;30.281076;-97.70932;478.77;532.4035811898309;;0.0;34.580647;;17 / 20;2117;2018-02-21 20:30:00:966
3.4899;8.1257;9.6283;5.505;7.6055;2.8438;12.8148;3.2678;3.18;-2.4525;-0.0291;1.9908;28.603;-23.66;10.34;-47.04;306.3;-65.56;-81.99;0.0;1003.99;54.581;30.281076;-97.70932;478.77;532.4035811898309;;0.0;34.580647;;17 / 20;2128;2018-02-21 20:30:00:977
3.4899;8.1257;9.6283;5.505;7.6055;2.8438;12.8148;3.2678;3.18;-2.4525;-0.0291;1.9908;28.603;-23.66;10.34;-47.04;306.3;-65.56;-81.99;0.0;1003.99;54.581;30.281076;-97.70932;478.77;532.4035811898309;;0.0;34.580647;;17 / 20;2137;2018-02-21 20:30:00:986
3.4899;8.1257;9.6283;5.505;7.6055;2.8438;12.8148;3.2678;3.18;-2.4525;-0.0291;1.9908;28.603;-23.66;10.34;-47.04;306.3;-65.56;-81.99;0.0;1003.99;54.581;30.281076;-97.70932;478.77;532.4035811898309;;0.0;34.580647;;17 / 20;2148;2018-02-21 20:30:00:997
3.4899;8.1257;9.6283;5.505;7.6055;2.8438;12.8148;3.2678;3.18;-2.4525;-0.0291;1.9908;28.603;-28.71;24.84;-43.24;334.01;-50.83;-62.68;0.0;1003.99;54.581;30.281076;-97.70932;478.77;532.4035811898309;;0.0;34.580647;;17 / 20;2157;2018-02-21 20:30:01:006
3.4899;8.1257;9.6283;5.505;7.6055;2.8438;12.8148;3.2678;3.18;-2.4525;-0.0291;1.9908;28.603;-28.71;24.84;-43.24;334.01;-50.83;-62.68;0.0;1003.99;54.581;30.281076;-97.70932;478.77;532.4035811898309;;0.0;34.580647;;17 / 20;2168;2018-02-21 20:30:01:017
3.4899;8.1257;9.6283;5.505;7.6055;2.8438;12.8148;3.2678;3.18;-2.4525;-0.0291;1.9908;28.603;-28.71;24.84;-43.24;334.01;-50.83;-62.68;0.0;1003.99;54.581;30.281076;-97.70932;478.77;532.4035811898309;;0.0;34.580647;;17 / 20;2177;2018-02-21 20:30:01:026
3.4899;8.1257;9.6283;5.505;7.6055;2.8438;12.8148;3.2678;3.18;-2.4525;-0.0291;1.9908;28.603;-28.71;24.84;-43.24;334.01;-50.83;-62.68;0.0;1003.99;54.581;30.281076;-97.70932;478.77;532.4035811898309;;0.0;34.580647;;17 / 20;2188;2018-02-21 20:30:01:037
3.4899;8.1257;9.6283;5.584;7.2411;3.5527;12.8148;3.2678;3.18;-2.4525;-0.0291;1.9908;28.603;-28.71;24.84;-43.24;334.01;-50.83;-62.68;0.0;1003.99;54.581;30.281076;-97.70932;478.77;532.4035811898309;;0.0;34.580647;;17 / 20;2197;2018-02-21 20:30:01:046
3.4899;8.1257;9.6283;5.584;7.2411;3.5527;12.8148;3.2678;3.18;0.1025;-0.0284;-0.0483;28.603;-28.71;24.84;-43.24;334.01;-50.83;-62.68;0.0;1003.99;54.581;30.281076;-97.70932;478.77;532.4035811898309;;0.0;34.580647;;17 / 20;2208;2018-02-21 20:30:01:057
3.4899;8.1257;9.6283;5.584;7.2411;3.5527;12.8148;3.2678;3.18;0.1025;-0.0284;-0.0483;28.603;-28.71;24.84;-43.24;334.01;-50.83;-62.68;0.0;1003.99;54.581;30.281076;-97.70932;478.77;532.4035811898309;;0.0;34.580647;;17 / 20;2217;2018-02-21 20:30:01:066
3.4899;8.1257;9.6283;5.584;7.2411;3.5527;2.4327;2.3377;-1.3583;0.1025;-0.0284;-0.0483;28.603;-28.71;24.84;-43.24;334.01;-50.83;-62.68;0.0;1003.99;54.581;30.281076;-97.70932;478.77;532.4035811898309;;0.0;34.580647;;17 / 20;2228;2018-02-21 20:30:01:077
3.4899;8.1257;9.6283;5.584;7.2411;3.5527;2.4327;2.3377;-1.3583;0.1025;-0.0284;-0.0483;28.603;-28.71;24.84;-43.24;334.01;-50.83;-62.68;0.0;1003.99;54.581;30.281076;-97.70932;478.77;532.4035811898309;;0.0;34.580647;;17 / 20;2237;2018-02-21 20:30:01:086
3.4899;8.1257;9.6283;5.584;7.2411;3.5527;2.4327;2.3377;-1.3583;0.1025;-0.0284;-0.0483;28.603;-28.71;24.84;-43.24;334.01;-50.83;-62.68;0.0;1003.99;54.581;30.281076;-97.70932;478.77;532.4035811898309;;0.0;34.580647;;17 / 20;2248;2018-02-21 20:30:01:097
5.0721;7.1161;3.8208;5.584;7.2411;3.5527;2.4327;2.3377;-1.3583;0.1025;-0.0284;-0.0483;28.603;-28.71;24.84;-43.24;334.01;-50.83;-62.68;0.0;1003.99;54.581;30.281076;-97.70932;478.77;532.4035811898309;;0.0;34.580647;;17 / 20;2257;2018-02-21 20:30:01:106
5.0721;7.1161;3.8208;5.584;7.2411;3.5527;2.4327;2.3377;-1.3583;0.1025;-0.0284;-0.0483;28.603;-28.71;24.84;-43.24;334.01;-50.83;-62.68;0.0;1004.04;62.967;30.281076;-97.70932;478.77;532.4035811898309;;0.0;34.580647;;17 / 20;2268;2018-02-21 20:30:01:117
5.0721;7.1161;3.8208;5.584;7.2411;3.5527;2.4327;2.3377;-1.3583;0.1025;-0.0284;-0.0483;28.603;-29.16;23.44;-41.24;339.1;-47.57;-57.53;0.0;1004.04;62.967;30.281076;-97.70932;478.77;532.4035811898309;;0.0;34.580647;;17 / 20;2277;2018-02-21 20:30:01:126
5.0721;7.1161;3.8208;5.584;7.2411;3.5527;2.4327;2.3377;-1.3583;0.1025;-0.0284;-0.0483;28.603;-29.16;23.44;-41.24;339.1;-47.57;-57.53;0.0;1004.04;62.967;30.281076;-97.70932;478.77;532.4035811898309;;0.0;34.580647;;17 / 20;2288;2018-02-21 20:30:01:137
5.0721;7.1161;3.8208;5.584;7.2411;3.5527;2.4327;2.3377;-1.3583;0.1025;-0.0284;-0.0483;28.603;-29.16;23.44;-41.24;339.1;-47.57;-57.53;0.0;1004.04;62.967;30.281076;-97.70932;478.77;532.4035811898309;;0.0;34.580647;;17 / 20;2297;2018-02-21 20:30:01:146
5.0721;7.1161;3.8208;5.584;7.2411;3.5527;2.4327;2.3377;-1.3583;0.1025;-0.0284;-0.0483;28.603;-29.16;23.44;-41.24;339.1;-47.57;-57.53;0.0;1004.04;62.967;30.281076;-97.70932;478.77;532.4035811898309;;0.0;34.580647;;17 / 20;2308;2018-02-21 20:30:01:157
5.0721;7.1161;3.8208;4.9563;7.7435;3.4221;2.4327;2.3377;-1.3583;0.1025;-0.0284;-0.0483;28.603;-29.16;23.44;-41.24;339.1;-47.57;-57.53;0.0;1004.04;62.967;30.281076;-97.70932;478.77;532.4035811898309;;0.0;34.580647;;17 / 20;2318;2018-02-21 20:30:01:167
5.0721;7.1161;3.8208;4.9563;7.7435;3.4221;2.4327;2.3377;-1.3583;0.3172;-0.0649;-0.5909;28.603;-29.16;23.44;-41.24;339.1;-47.57;-57.53;0.0;1004.04;62.967;30.281076;-97.70932;478.77;532.4035811898309;;0.0;34.580647;;17 / 20;2328;2018-02-21 20:30:01:177
5.0721;7.1161;3.8208;4.9563;7.7435;3.4221;-1.3381;-1.9225;0.8508;0.3172;-0.0649;-0.5909;28.603;-29.16;23.44;-41.24;339.1;-47.57;-57.53;0.0;1004.04;62.967;30.281076;-97.70932;478.77;532.4035811898309;;0.0;34.580647;;17 / 20;2337;2018-02-21 20:30:01:186
5.0721;7.1161;3.8208;4.9563;7.7435;3.4221;-1.3381;-1.9225;0.8508;0.3172;-0.0649;-0.5909;28.603;-29.16;23.44;-41.24;339.1;-47.57;-57.53;0.0;1004.04;62.967;30.281076;-97.70932;478.77;532.4035811898309;;0.0;34.580647;;17 / 20;2348;2018-02-21 20:30:01:197
5.0721;7.1161;3.8208;4.9563;7.7435;3.4221;-1.3381;-1.9225;0.8508;0.3172;-0.0649;-0.5909;28.603;-29.16;23.44;-41.24;339.1;-47.57;-57.53;0.0;1004.04;62.967;30.281076;-97.70932;478.77;532.4035811898309;;0.0;34.580647;;17 / 20;2357;2018-02-21 20:30:01:206
5.0721;7.1161;3.8208;4.9563;7.7435;3.4221;-1.3381;-1.9225;0.8508;0.3172;-0.0649;-0.5909;28.603;-29.16;23.44;-41.24;339.1;-47.57;-57.53;0.0;1004.04;62.967;30.281076;-97.70932;478.77;532.4035811898309;;0.0;34.580647;;17 / 20;2368;2018-02-21 20:30:01:217
5.0721;7.1161;3.8208;4.9563;7.7435;3.4221;-1.3381;-1.9225;0.8508;0.3172;-0.0649;-0.5909;28.603;-29.16;23.44;-41.24;339.1;-47.57;-57.53;0.0;1004.04;62.967;30.281076;-97.70932;478.77;532.4035811898309;;0.0;34.580647;;17 / 20;2377;2018-02-21 20:30:01:226
5.0721;7.1161;3.8208;4.9563;7.7435;3.4221;-1.3381;-1.9225;0.8508;0.3172;-0.0649;-0.5909;28.603;-28.36;18.84;-37.99;341.86;-52.12;-55.38;0.0;1004.04;62.967;30.281076;-97.70932;478.77;532.4035811898309;;0.0;34.580647;;17 / 20;2388;2018-02-21 20:30:01:237
6.1596;9.6913;2.4268;4.9563;7.7435;3.4221;-1.3381;-1.9225;0.8508;0.3172;-0.0649;-0.5909;28.603;-28.36;18.84;-37.99;341.86;-52.12;-55.38;0.0;1004.04;62.967;30.281076;-97.70932;478.77;532.4035811898309;;0.0;34.580647;;17 / 20;2398;2018-02-21 20:30:01:247
6.1596;9.6913;2.4268;4.9563;7.7435;3.4221;-1.3381;-1.9225;0.8508;0.3172;-0.0649;-0.5909;28.603;-28.36;18.84;-37.99;341.86;-52.12;-55.38;0.0;1004.04;62.967;30.281076;-97.70932;478.77;532.4035811898309;;0.0;34.580647;;17 / 20;2408;2018-02-21 20:30:01:257
6.1596;9.6913;2.4268;4.9563;7.7435;3.4221;-1.3381;-1.9225;0.8508;0.3172;-0.0649;-0.5909;28.603;-28.36;18.84;-37.99;341.86;-52.12;-55.38;0.0;1004.04;62.967;30.281076;-97.70932;478.77;532.4035811898309;;0.0;34.580647;;17 / 20;2418;2018-02-21 20:30:01:267
6.1596;9.6913;2.4268;4.9563;7.7435;3.4221;-1.3381;-1.9225;0.8508;0.3172;-0.0649;-0.5909;28.603;-28.36;18.84;-37.99;341.86;-52.12;-55.38;0.0;1004.04;62.967;30.281076;-97.70932;478.77;532.4035811898309;;0.0;34.580647;;17 / 20;2427;2018-02-21 20:30:01:276
6.1596;9.6913;2.4268;4.9563;7.7435;3.4221;-1.3381;-1.9225;0.8508;0.3172;-0.0649;-0.5909;28.603;-28.36;18.84;-37.99;341.86;-52.12;-55.38;0.0;1004.04;62.967;30.281076;-97.70932;478.77;532.4035811898309;;0.0;34.580647;;17 / 20;2437;2018-02-21 20:30:01:286
6.1596;9.6913;2.4268;3.3248;8.8535;2.6073;-1.3381;-1.9225;0.8508;1.1726;0.6734;-1.8011;28.603;-28.36;18.84;-37.99;341.86;-52.12;-55.38;0.0;1004.04;62.967;30.281076;-97.70932;478.77;532.4035811898309;;0.0;34.580647;;17 / 20;2448;2018-02-21 20:30:01:297
6.1596;9.6913;2.4268;3.3248;8.8535;2.6073;-6.2973;5.1154;-0.4434;1.1726;0.6734;-1.8011;28.603;-28.36;18.84;-37.99;341.86;-52.12;-55.38;0.0;1004.04;62.967;30.281076;-97.70932;478.77;532.4035811898309;;0.0;34.580647;;17 / 20;2457;2018-02-21 20:30:01:306
6.1596;9.6913;2.4268;3.3248;8.8535;2.6073;-6.2973;5.1154;-0.4434;1.1726;0.6734;-1.8011;28.603;-28.36;18.84;-37.99;341.86;-52.12;-55.38;0.0;1003.93;62.967;30.281076;-97.70932;478.77;532.4035811898309;;0.0;34.580647;;17 / 20;2468;2018-02-21 20:30:01:317
6.1596;9.6913;2.4268;3.3248;8.8535;2.6073;-6.2973;5.1154;-0.4434;1.1726;0.6734;-1.8011;28.603;-28.36;18.84;-37.99;341.86;-52.12;-55.38;0.0;1003.93;62.967;30.281076;-97.70932;478.77;532.4035811898309;;0.0;34.580647;;17 / 20;2477;2018-02-21 20:30:01:326
6.1596;9.6913;2.4268;3.3248;8.8535;2.6073;-6.2973;5.1154;-0.4434;1.1726;0.6734;-1.8011;28.603;-28.36;18.84;-37.99;341.86;-52.12;-55.38;0.0;1003.93;62.967;30.281076;-97.70932;478.77;532.4035811898309;;0.0;34.580647;;17 / 20;2488;2018-02-21 20:30:01:337
6.1596;9.6913;2.4268;3.3248;8.8535;2.6073;-6.2973;5.1154;-0.4434;1.1726;0.6734;-1.8011;28.603;-28.36;18.84;-37.99;341.86;-52.12;-55.38;0.0;1003.93;62.967;30.281076;-97.70932;478.77;532.4035811898309;;0.0;34.580647;;17 / 20;2497;2018-02-21 20:30:01:346
6.1596;9.6913;2.4268;3.3248;8.8535;2.6073;-6.2973;5.1154;-0.4434;1.1726;0.6734;-1.8011;28.603;-25.81;9.34;-38.34;342.33;-64.49;-51.9;0.0;1003.93;62.967;30.281076;-97.70932;478.77;532.4035811898309;;0.0;34.580647;;17 / 20;2508;2018-02-21 20:30:01:357
6.1596;9.6913;2.4268;3.3248;8.8535;2.6073;-6.2973;5.1154;-0.4434;1.1726;0.6734;-1.8011;28.603;-25.81;9.34;-38.34;342.33;-64.49;-51.9;0.0;1003.93;62.967;30.281076;-97.70932;478.77;532.4035811898309;;0.0;34.580647;;17 / 20;2517;2018-02-21 20:30:01:366
6.1596;9.6913;2.4268;3.3248;8.8535;2.6073;-6.2973;5.1154;-0.4434;1.1726;0.6734;-1.8011;28.603;-25.81;9.34;-38.34;342.33;-64.49;-51.9;0.0;1003.93;62.967;30.281076;-97.70932;478.77;532.4035811898309;;0.0;34.580647;;17 / 20;2528;2018-02-21 20:30:01:377
9.0352;7.0959;2.4089;3.3248;8.8535;2.6073;-6.2973;5.1154;-0.4434;1.1726;0.6734;-1.8011;28.603;-25.81;9.34;-38.34;342.33;-64.49;-51.9;0.0;1003.93;62.967;30.281076;-97.70932;478.77;532.4035811898309;;0.0;34.580647;;17 / 20;2538;2018-02-21 20:30:01:387
9.0352;7.0959;2.4089;3.3248;8.8535;2.6073;-6.2973;5.1154;-0.4434;1.1726;0.6734;-1.8011;28.603;-25.81;9.34;-38.34;342.33;-64.49;-51.9;0.0;1003.93;62.967;30.281076;-97.70932;478.77;532.4035811898309;;0.0;34.580647;;17 / 20;2548;2018-02-21 20:30:01:397
9.0352;7.0959;2.4089;3.3248;8.8535;2.6073;-6.2973;5.1154;-0.4434;1.1726;0.6734;-1.8011;28.603;-25.81;9.34;-38.34;342.33;-64.49;-51.9;0.0;1003.93;62.967;30.281076;-97.70932;478.77;532.4035811898309;;0.0;34.580647;;17 / 20;2558;2018-02-21 20:30:01:407
9.0352;7.0959;2.4089;2.8107;9.0971;2.3621;-1.5198;0.4105;0.0175;1.1726;0.6734;-1.8011;28.603;-25.81;9.34;-38.34;342.33;-64.49;-51.9;0.0;1003.93;62.967;30.281076;-97.70932;478.77;532.4035811898309;;0.0;34.580647;;16 / 20;2567;2018-02-21 20:30:01:416
9.0352;7.0959;2.4089;2.8107;9.0971;2.3621;-1.5198;0.4105;0.0175;0.2274;0.996;-0.5697;28.603;-25.81;9.34;-38.34;342.33;-64.49;-51.9;0.0;1003.93;62.967;30.281076;-97.70932;478.77;532.4035811898309;;0.0;34.580647;;16 / 20;2578;2018-02-21 20:30:01:427
9.0352;7.0959;2.4089;2.8107;9.0971;2.3621;-1.5198;0.4105;0.0175;0.2274;0.996;-0.5697;0.895;-25.81;9.34;-38.34;342.33;-64.49;-51.9;0.0;1003.93;62.967;30.281076;-97.70932;478.77;532.4035811898309;;0.0;34.580647;;16 / 20;2588;2018-02-21 20:30:01:437
9.0352;7.0959;2.4089;2.8107;9.0971;2.3621;-1.5198;0.4105;0.0175;0.2274;0.996;-0.5697;0.895;-25.81;9.34;-38.34;342.33;-64.49;-51.9;0.0;1003.93;63.415;30.281076;-97.70932;478.77;532.4035811898309;;0.0;34.580647;;16 / 20;2598;2018-02-21 20:30:01:447
9.0352;7.0959;2.4089;2.8107;9.0971;2.3621;-1.5198;0.4105;0.0175;0.2274;0.996;-0.5697;0.895;-25.81;9.34;-38.34;342.33;-64.49;-51.9;0.0;1003.93;63.415;30.281076;-97.70932;478.77;532.4035811898309;;0.0;34.580647;;16 / 20;2608;2018-02-21 20:30:01:457
9.0352;7.0959;2.4089;2.8107;9.0971;2.3621;-1.5198;0.4105;0.0175;0.2274;0.996;-0.5697;0.895;-19.81;5.19;-36.94;337.94;-68.02;-49.96;0.0;1003.93;63.415;30.281076;-97.70932;478.77;532.4035811898309;;0.0;34.580647;;16 / 20;2617;2018-02-21 20:30:01:466
9.0352;7.0959;2.4089;2.8107;9.0971;2.3621;-1.5198;0.4105;0.0175;0.2274;0.996;-0.5697;0.895;-19.81;5.19;-36.94;337.94;-68.02;-49.96;0.0;1003.93;63.415;30.281076;-97.70932;478.77;532.4035811898309;;0.0;34.580647;;16 / 20;2628;2018-02-21 20:30:01:477
9.0352;7.0959;2.4089;2.8107;9.0971;2.3621;-1.5198;0.4105;0.0175;0.2274;0.996;-0.5697;0.895;-19.81;5.19;-36.94;337.94;-68.02;-49.96;0.0;1003.93;63.415;30.281076;-97.70932;478.77;532.4035811898309;;0.0;34.580647;;16 / 20;2638;2018-02-21 20:30:01:487
9.0352;7.0959;2.4089;2.8107;9.0971;2.3621;-1.5198;0.4105;0.0175;0.2274;0.996;-0.5697;0.895;-19.81;5.19;-36.94;337.94;-68.02;-49.96;0.0;1003.93;63.415;30.281076;-97.70932;478.77;532.4035811898309;;0.0;34.580647;;16 / 20;2647;2018-02-21 20:30:01:496
9.0352;7.0959;2.4089;2.8107;9.0971;2.3621;-1.5198;0.4105;0.0175;0.2274;0.996;-0.5697;0.895;-19.81;5.19;-36.94;337.94;-68.02;-49.96;0.0;1003.93;63.415;30.281076;-97.70932;478.77;532.4035811898309;;0.0;34.580647;;16 / 20;2658;2018-02-21 20:30:01:507
9.0352;7.0959;2.4089;2.8107;9.0971;2.3621;-1.5198;0.4105;0.0175;0.2274;0.996;-0.5697;0.895;-19.81;5.19;-36.94;337.94;-68.02;-49.96;0.0;1003.93;63.415;30.281076;-97.70932;478.77;532.4035811898309;;0.0;34.580647;;16 / 20;2667;2018-02-21 20:30:01:516
3.1031;10.7413;3.7957;2.8107;9.0971;2.3621;-1.5198;0.4105;0.0175;0.2274;0.996;-0.5697;0.895;-19.81;5.19;-36.94;337.94;-68.02;-49.96;0.0;1003.84;63.415;30.281076;-97.70932;478.77;532.4035811898309;;0.0;34.580647;;16 / 20;2678;2018-02-21 20:30:01:527
3.1031;10.7413;3.7957;2.8107;9.0971;2.3621;6.2938;6.2308;-2.6846;0.2274;0.996;-0.5697;0.895;-19.81;5.19;-36.94;337.94;-68.02;-49.96;0.0;1003.84;63.415;30.281076;-97.70932;478.77;532.4035811898309;;0.0;34.580647;;16 / 20;2688;2018-02-21 20:30:01:537
3.1031;10.7413;3.7957;-1.212;9.6472;1.3036;6.2938;6.2308;-2.6846;1.7185;0.0824;-2.5762;0.895;-19.81;5.19;-36.94;337.94;-68.02;-49.96;0.0;1003.84;63.415;30.281076;-97.70932;478.77;532.4035811898309;;0.0;34.580647;;16 / 20;2697;2018-02-21 20:30:01:546
3.1031;10.7413;3.7957;-1.212;9.6472;1.3036;6.2938;6.2308;-2.6846;1.7185;0.0824;-2.5762;0.895;-19.81;5.19;-36.94;337.94;-68.02;-49.96;0.0;1003.84;63.415;30.281076;-97.70932;478.77;532.4035811898309;;0.0;34.580647;;16 / 20;2708;2018-02-21 20:30:01:557
3.1031;10.7413;3.7957;-1.212;9.6472;1.3036;6.2938;6.2308;-2.6846;1.7185;0.0824;-2.5762;0.895;-19.81;5.19;-36.94;337.94;-68.02;-49.96;0.0;1003.84;63.415;30.281076;-97.70932;478.77;532.4035811898309;;0.0;34.580647;;16 / 20;2717;2018-02-21 20:30:01:566
3.1031;10.7413;3.7957;-1.212;9.6472;1.3036;6.2938;6.2308;-2.6846;1.7185;0.0824;-2.5762;0.895;-19.81;5.19;-36.94;337.94;-68.02;-49.96;0.0;1003.84;63.415;30.281076;-97.70932;478.77;532.4035811898309;;0.0;34.580647;;16 / 20;2728;2018-02-21 20:30:01:577
3.1031;10.7413;3.7957;-1.212;9.6472;1.3036;6.2938;6.2308;-2.6846;1.7185;0.0824;-2.5762;0.895;-9.21;-10.71;-31.29;62.69;-79.55;42.92;0.0;1003.84;63.415;30.281076;-97.70932;478.77;532.4035811898309;;0.0;34.580647;;16 / 20;2737;2018-02-21 20:30:01:586
3.1031;10.7413;3.7957;-1.212;9.6472;1.3036;6.2938;6.2308;-2.6846;1.7185;0.0824;-2.5762;0.895;-9.21;-10.71;-31.29;62.69;-79.55;42.92;0.0;1003.84;63.415;30.281076;-97.70932;478.77;532.4035811898309;;0.0;34.580647;;16 / 20;2748;2018-02-21 20:30:01:597
3.1031;10.7413;3.7957;-1.212;9.6472;1.3036;6.2938;6.2308;-2.6846;1.7185;0.0824;-2.5762;0.895;-9.21;-10.71;-31.29;62.69;-79.55;42.92;0.0;1003.84;63.415;30.281076;-97.70932;478.77;532.4035811898309;;0.0;34.580647;;16 / 20;2758;2018-02-21 20:30:01:607
3.1031;10.7413;3.7957;-1.212;9.6472;1.3036;6.2938;6.2308;-2.6846;1.7185;0.0824;-2.5762;0.895;-9.21;-10.71;-31.29;62.69;-79.55;42.92;0.0;1003.84;63.415;30.281076;-97.70932;478.77;532.4035811898309;;0.0;34.580647;;16 / 20;2768;2018-02-21 20:30:01:617
3.1031;10.7413;3.7957;-1.212;9.6472;1.3036;6.2938;6.2308;-2.6846;1.7185;0.0824;-2.5762;0.895;-9.21;-10.71;-31.29;62.69;-79.55;42.92;0.0;1003.84;63.415;30.281076;-97.70932;478.77;532.4035811898309;;0.0;34.580647;;16 / 20;2778;2018-02-21 20:30:01:627
3.1031;10.7413;3.7957;-1.212;9.6472;1.3036;6.2938;6.2308;-2.6846;1.7185;0.0824;-2.5762;0.895;-9.21;-10.71;-31.29;62.69;-79.55;42.92;0.0;1003.84;63.415;30.281076;-97.70932;478.77;532.4035811898309;;0.0;34.580647;;16 / 20;2787;2018-02-21 20:30:01:636
3.1031;10.7413;3.7957;-1.212;9.6472;1.3036;-0.7388;5.7927;1.6081;1.7185;0.0824;-2.5762;0.895;-9.21;-10.71;-31.29;62.69;-79.55;42.92;0.0;1003.84;63.415;30.281076;-97.70932;478.77;532.4035811898309;;0.0;34.580647;;16 / 20;2798;2018-02-21 20:30:01:647
3.1031;10.7413;3.7957;-1.212;9.6472;1.3036;-0.7388;5.7927;1.6081;1.7185;0.0824;-2.5762;0.895;-9.21;-10.71;-31.29;62.69;-79.55;42.92;0.0;1003.84;63.415;30.281076;-97.70932;478.77;532.4035811898309;;0.0;34.580647;;16 / 20;2808;2018-02-21 20:30:01:657
-0.5451;3.0846;-2.16;-0.502;9.7576;0.8789;-0.7388;5.7927;1.6081;1.7185;0.0824;-2.5762;0.895;-9.21;-10.71;-31.29;62.69;-79.55;42.92;0.0;1003.84;63.415;30.281076;-97.70932;478.77;532.4035811898309;;0.0;34.580647;;16 / 20;2817;2018-02-21 20:30:01:666
-0.5451;3.0846;-2.16;-0.502;9.7576;0.8789;-0.7388;5.7927;1.6081;0.2597;-0.1922;0.7187;0.895;-9.21;-10.71;-31.29;62.69;-79.55;42.92;0.0;1003.84;63.415;30.281076;-97.70932;478.77;532.4035811898309;;0.0;34.580647;;16 / 20;2828;2018-02-21 20:30:01:677
-0.5451;3.0846;-2.16;-0.502;9.7576;0.8789;-0.7388;5.7927;1.6081;0.2597;-0.1922;0.7187;0.895;-9.21;-10.71;-31.29;62.69;-79.55;42.92;0.0;1003.84;63.415;30.281076;-97.70932;478.77;532.4035811898309;;0.0;34.580647;;16 / 20;2837;2018-02-21 20:30:01:686
-0.5451;3.0846;-2.16;-0.502;9.7576;0.8789;-0.7388;5.7927;1.6081;0.2597;-0.1922;0.7187;0.895;-8.96;-10.56;-27.09;50.08;-84.08;29.73;0.0;1003.84;63.415;30.281076;-97.70932;478.77;532.4035811898309;;0.0;34.580647;;16 / 20;2847;2018-02-21 20:30:01:696
-0.5451;3.0846;-2.16;-0.502;9.7576;0.8789;-0.7388;5.7927;1.6081;0.2597;-0.1922;0.7187;0.895;-8.96;-10.56;-27.09;50.08;-84.08;29.73;0.0;1003.84;63.415;30.281076;-97.70932;478.77;532.4035811898309;;0.0;34.580647;;16 / 20;2858;2018-02-21 20:30:01:707
-0.5451;3.0846;-2.16;-0.502;9.7576;0.8789;-0.7388;5.7927;1.6081;0.2597;-0.1922;0.7187;0.895;-8.96;-10.56;-27.09;50.08;-84.08;29.73;0.0;1003.87;63.415;30.281076;-97.70932;478.77;532.4035811898309;;0.0;34.580647;;16 / 20;2867;2018-02-21 20:30:01:716
-0.5451;3.0846;-2.16;-0.502;9.7576;0.8789;-0.7388;5.7927;1.6081;0.2597;-0.1922;0.7187;0.895;-8.96;-10.56;-27.09;50.08;-84.08;29.73;0.0;1003.87;63.415;30.281076;-97.70932;478.77;532.4035811898309;;0.0;34.580647;;16 / 20;2878;2018-02-21 20:30:01:727
-0.5451;3.0846;-2.16;-0.502;9.7576;0.8789;-0.7388;5.7927;1.6081;0.2597;-0.1922;0.7187;0.895;-8.96;-10.56;-27.09;50.08;-84.08;29.73;0.0;1003.87;63.415;30.281076;-97.70932;478.77;532.4035811898309;;0.0;34.580647;;16 / 20;2887;2018-02-21 20:30:01:736
-0.5451;3.0846;-2.16;-0.502;9.7576;0.8789;-0.7388;5.7927;1.6081;0.2597;-0.1922;0.7187;0.895;-8.96;-10.56;-27.09;50.08;-84.08;29.73;0.0;1003.87;63.415;30.281076;-97.70932;478.77;532.4035811898309;;0.0;34.580647;;16 / 20;2898;2018-02-21 20:30:01:747
-0.5451;3.0846;-2.16;-0.502;9.7576;0.8789;-0.7388;5.7927;1.6081;0.2597;-0.1922;0.7187;0.895;-8.96;-10.56;-27.09;50.08;-84.08;29.73;0.0;1003.87;63.415;30.281076;-97.70932;478.77;532.4035811898309;;0.0;34.580647;;16 / 20;2908;2018-02-21 20:30:01:757
-0.5451;3.0846;-2.16;-0.502;9.7576;0.8789;2.8836;5.8805;-0.1714;0.2597;-0.1922;0.7187;0.895;-8.96;-10.56;-27.09;50.08;-84.08;29.73;0.0;1003.87;61.427;30.281076;-97.70932;478.77;532.4035811898309;;0.0;34.580647;;16 / 20;2917;2018-02-21 20:30:01:766
-0.5451;3.0846;-2.16;-0.502;9.7576;0.8789;2.8836;5.8805;-0.1714;0.2597;-0.1922;0.7187;0.895;-8.96;-10.56;-27.09;50.08;-84.08;29.73;0.0;1003.87;61.427;30.281076;-97.70932;478.77;532.4035811898309;;0.0;34.580647;;16 / 20;2928;2018-02-21 20:30:01:777
-0.5451;3.0846;-2.16;-0.502;9.7576;0.8789;2.8836;5.8805;-0.1714;0.2597;-0.1922;0.7187;0.895;-8.96;-10.56;-27.09;50.08;-84.08;29.73;0.0;1003.87;61.427;30.281076;-97.70932;478.77;532.4035811898309;;0.0;34.580647;;16 / 20;2938;2018-02-21 20:30:01:787
-0.5451;3.0846;-2.16;-1.4088;9.6751;-0.8023;2.8836;5.8805;-0.1714;3.0187;0.8127;1.3966;0.895;-8.96;-10.56;-27.09;50.08;-84.08;29.73;0.0;1003.87;61.427;30.281076;-97.70932;478.77;532.4035811898309;;0.0;34.580647;;16 / 20;2948;2018-02-21 20:30:01:797
-1.7655;-2.6348;6.7198;-1.4088;9.6751;-0.8023;2.8836;5.8805;-0.1714;3.0187;0.8127;1.3966;0.895;-8.96;-10.56;-27.09;50.08;-84.08;29.73;0.0;1003.87;61.427;30.281076;-97.70932;478.77;532.4035811898309;;0.0;34.580647;;16 / 20;2958;2018-02-21 20:30:01:807
-1.7655;-2.6348;6.7198;-1.4088;9.6751;-0.8023;2.8836;5.8805;-0.1714;3.0187;0.8127;1.3966;0.895;-9.11;-16.26;-14.39;155.84;-80.49;119.66;0.0;1003.87;61.427;30.281076;-97.70932;478.77;532.4035811898309;;0.0;34.580647;;16 / 20;2968;2018-02-21 20:30:01:817
-1.7655;-2.6348;6.7198;-1.4088;9.6751;-0.8023;2.8836;5.8805;-0.1714;3.0187;0.8127;1.3966;0.895;-9.11;-16.26;-14.39;155.84;-80.49;119.66;0.0;1003.87;61.427;30.281076;-97.70932;478.77;532.4035811898309;;0.0;34.580647;;16 / 20;2978;2018-02-21 20:30:01:827
-1.7655;-2.6348;6.7198;-1.4088;9.6751;-0.8023;2.8836;5.8805;-0.1714;3.0187;0.8127;1.3966;0.895;-9.11;-16.26;-14.39;155.84;-80.49;119.66;0.0;1003.87;61.427;30.281076;-97.70932;478.77;532.4035811898309;;0.0;34.580647;;16 / 20;2987;2018-02-21 20:30:01:836
-1.7655;-2.6348;6.7198;-1.4088;9.6751;-0.8023;2.8836;5.8805;-0.1714;3.0187;0.8127;1.3966;0.895;-9.11;-16.26;-14.39;155.84;-80.49;119.66;0.0;1003.87;61.427;30.281076;-97.70932;478.77;532.4035811898309;;0.0;34.580647;;16 / 20;2998;2018-02-21 20:30:01:847
-1.7655;-2.6348;6.7198;-1.4088;9.6751;-0.8023;2.8836;5.8805;-0.1714;3.0187;0.8127;1.3966;0.895;-9.11;-16.26;-14.39;155.84;-80.49;119.66;0.0;1003.87;61.427;30.281076;-97.70932;478.77;532.4035811898309;;0.0;34.580647;;16 / 20;3008;2018-02-21 20:30:01:857
-1.7655;-2.6348;6.7198;-1.4088;9.6751;-0.8023;2.8836;5.8805;-0.1714;3.0187;0.8127;1.3966;0.895;-9.11;-16.26;-14.39;155.84;-80.49;119.66;0.0;1003.87;61.427;30.281076;-97.70932;478.77;532.4035811898309;;0.0;34.580647;;16 / 20;3018;2018-02-21 20:30:01:867
-1.7655;-2.6348;6.7198;-1.4088;9.6751;-0.8023;-0.0642;-4.9701;-0.5641;3.0187;0.8127;1.3966;0.895;-9.11;-16.26;-14.39;155.84;-80.49;119.66;0.0;1003.87;61.427;30.281076;-97.70932;478.77;532.4035811898309;;0.0;34.580647;;16 / 20;3027;2018-02-21 20:30:01:876
-1.7655;-2.6348;6.7198;-1.4088;9.6751;-0.8023;-0.0642;-4.9701;-0.5641;3.0187;0.8127;1.3966;0.895;-9.11;-16.26;-14.39;155.84;-80.49;119.66;0.0;1003.87;61.427;30.281076;-97.70932;478.77;532.4035811898309;;0.0;34.580647;;16 / 20;3038;2018-02-21 20:30:01:887
-1.7655;-2.6348;6.7198;-1.4088;9.6751;-0.8023;-0.0642;-4.9701;-0.5641;3.0187;0.8127;1.3966;0.895;-9.11;-16.26;-14.39;155.84;-80.49;119.66;0.0;1003.87;61.427;30.281076;-97.70932;478.77;532.4035811898309;;0.0;34.580647;;16 / 20;3048;2018-02-21 20:30:01:897
-1.7655;-2.6348;6.7198;-1.4088;9.6751;-0.8023;-0.0642;-4.9701;-0.5641;3.0187;0.8127;1.3966;0.895;-9.11;-16.26;-14.39;155.84;-80.49;119.66;0.0;1003.87;61.427;30.281076;-97.70932;478.77;532.4035811898309;;0.0;34.580647;;16 / 20;3057;2018-02-21 20:30:01:906
-1.7655;-2.6348;6.7198;-1.1762;8.0747;-5.4454;-0.0642;-4.9701;-0.5641;3.0187;0.8127;1.3966;0.895;-9.11;-16.26;-14.39;155.84;-80.49;119.66;0.0;1004.68;61.427;30.281076;-97.70932;478.77;532.4035811898309;;0.0;34.580647;;16 / 20;3068;2018-02-21 20:30:01:917
-1.7655;-2.6348;6.7198;-1.1762;8.0747;-5.4454;-0.0642;-4.9701;-0.5641;4.4814;-1.528;0.4961;0.895;-11.06;-15.46;9.11;255.85;-55.4;167.81;0.0;1004.68;61.427;30.281076;-97.70932;478.77;532.4035811898309;;0.0;34.580647;;16 / 20;3077;2018-02-21 20:30:01:926
-1.7655;-2.6348;6.7198;-1.1762;8.0747;-5.4454;-0.0642;-4.9701;-0.5641;4.4814;-1.528;0.4961;0.895;-11.06;-15.46;9.11;255.85;-55.4;167.81;0.0;1004.68;61.427;30.281076;-97.70932;478.77;532.4035811898309;;0.0;34.580647;;16 / 20;3088;2018-02-21 20:30:01:937
-0.9679;13.8938;-3.3676;-1.1762;8.0747;-5.4454;-0.0642;-4.9701;-0.5641;4.4814;-1.528;0.4961;0.895;-11.06;-15.46;9.11;255.85;-55.4;167.81;0.0;1004.68;61.427;30.281076;-97.70932;478.77;532.4035811898309;;0.0;34.580647;;16 / 20;3097;2018-02-21 20:30:01:946
-0.9679;13.8938;-3.3676;-1.1762;8.0747;-5.4454;-0.0642;-4.9701;-0.5641;4.4814;-1.528;0.4961;0.895;-11.06;-15.46;9.11;255.85;-55.4;167.81;0.0;1004.68;61.427;30.281076;-97.70932;478.77;532.4035811898309;;0.0;34.580647;;16 / 20;3108;2018-02-21 20:30:01:957
-0.9679;13.8938;-3.3676;-1.1762;8.0747;-5.4454;-0.0642;-4.9701;-0.5641;4.4814;-1.528;0.4961;0.895;-11.06;-15.46;9.11;255.85;-55.4;167.81;0.0;1004.68;61.427;30.281076;-97.70932;478.77;532.4035811898309;;0.0;34.580647;;16 / 20;3117;2018-02-21 20:30:01:966
-0.9679;13.8938;-3.3676;-1.1762;8.0747;-5.4454;-0.0642;-4.9701;-0.5641;4.4814;-1.528;0.4961;0.895;-11.06;-15.46;9.11;255.85;-55.4;167.81;0.0;1004.68;61.427;30.281076;-97.70932;478.77;532.4035811898309;;0.0;34.580647;;16 / 20;3128;2018-02-21 20:30:01:977
-0.9679;13.8938;-3.3676;-1.1762;8.0747;-5.4454;-0.0642;-4.9701;-0.5641;4.4814;-1.528;0.4961;0.895;-11.06;-15.46;9.11;255.85;-55.4;167.81;0.0;1004.68;61.427;30.281076;-97.70932;478.77;532.4035811898309;;0.0;34.580647;;16 / 20;3137;2018-02-21 20:30:01:986
-0.9679;13.8938;-3.3676;-1.1762;8.0747;-5.4454;0.3575;3.4248;-7.0536;4.4814;-1.528;0.4961;0.895;-11.06;-15.46;9.11;255.85;-55.4;167.81;0.0;1004.68;61.427;30.281076;-97.70932;478.77;532.4035811898309;;0.0;34.580647;;16 / 20;3148;2018-02-21 20:30:01:997
-0.9679;13.8938;-3.3676;-1.1762;8.0747;-5.4454;0.3575;3.4248;-7.0536;4.4814;-1.528;0.4961;0.895;-11.06;-15.46;9.11;255.85;-55.4;167.81;0.0;1004.68;61.427;30.281076;-97.70932;478.77;532.4035811898309;;0.0;34.580647;;16 / 20;3158;2018-02-21 20:30:02:007
-0.9679;13.8938;-3.3676;-1.1762;8.0747;-5.4454;0.3575;3.4248;-7.0536;4.4814;-1.528;0.4961;0.895;-11.06;-15.46;9.11;255.85;-55.4;167.81;0.0;1004.68;61.427;30.281076;-97.70932;478.77;532.4035811898309;;0.0;34.580647;;16 / 20;3167;2018-02-21 20:30:02:016
-0.9679;13.8938;-3.3676;-1.1762;8.0747;-5.4454;0.3575;3.4248;-7.0536;4.4814;-1.528;0.4961;0.895;-11.06;-15.46;9.11;255.85;-55.4;167.81;0.0;1004.68;61.427;30.281076;-97.70932;478.77;532.4035811898309;;0.0;34.580647;;16 / 20;3177;2018-02-21 20:30:02:026
-0.9679;13.8938;-3.3676;-1.1762;8.0747;-5.4454;0.3575;3.4248;-7.0536;4.4814;-1.528;0.4961;0.895;-11.06;-15.46;9.11;255.85;-55.4;167.81;0.0;1004.68;61.427;30.281076;-97.70932;478.77;532.4035811898309;;0.0;34.580647;;16 / 20;3188;2018-02-21 20:30:02:037
-0.9679;13.8938;-3.3676;-2.3135;5.3937;-7.8608;0.3575;3.4248;-7.0536;2.131;-1.3729;-0.0752;0.895;-8.51;-8.11;27.81;318.15;-55.4;167.81;0.0;1004.68;61.427;30.281076;-97.70932;478.77;532.4035811898309;;0.0;34.580647;;16 / 20;3198;2018-02-21 20:30:02:047
-0.9679;13.8938;-3.3676;-2.3135;5.3937;-7.8608;0.3575;3.4248;-7.0536;2.131;-1.3729;-0.0752;0.895;-8.51;-8.11;27.81;318.15;-55.4;167.81;0.0;1004.68;61.427;30.281076;-97.70932;478.77;532.4035811898309;;0.0;34.580647;;16 / 20;3207;2018-02-21 20:30:02:056
-0.9679;13.8938;-3.3676;-2.3135;5.3937;-7.8608;0.3575;3.4248;-7.0536;2.131;-1.3729;-0.0752;0.895;-8.51;-8.11;27.81;318.15;-55.4;167.81;0.0;1004.68;61.427;30.281076;-97.70932;478.77;532.4035811898309;;0.0;34.580647;;16 / 20;3218;2018-02-21 20:30:02:067
-1.326;1.9383;-0.8675;-2.3135;5.3937;-7.8608;0.3575;3.4248;-7.0536;2.131;-1.3729;-0.0752;0.895;-8.51;-8.11;27.81;318.15;-55.4;167.81;0.0;1004.68;61.427;30.281076;-97.70932;478.77;532.4035811898309;;0.0;34.580647;;16 / 20;3227;2018-02-21 20:30:02:076
-1.326;1.9383;-0.8675;-2.3135;5.3937;-7.8608;0.3575;3.4248;-7.0536;2.131;-1.3729;-0.0752;0.895;-8.51;-8.11;27.81;318.15;-55.4;167.81;0.0;1004.68;61.427;30.281076;-97.70932;478.77;532.4035811898309;;0.0;34.580647;;16 / 20;3238;2018-02-21 20:30:02:087
-1.326;1.9383;-0.8675;-2.3135;5.3937;-7.8608;0.3575;3.4248;-7.0536;2.131;-1.3729;-0.0752;0.895;-8.51;-8.11;27.81;318.15;-55.4;167.81;0.0;1004.68;44.172;30.281076;-97.70932;478.77;532.4035811898309;;0.0;34.580647;;16 / 20;3248;2018-02-21 20:30:02:097
-1.326;1.9383;-0.8675;-2.3135;5.3937;-7.8608;-4.4807;5.1739;-2.9446;2.131;-1.3729;-0.0752;0.895;-8.51;-8.11;27.81;318.15;-55.4;167.81;0.0;1004.68;44.172;30.281076;-97.70932;478.77;532.4035811898309;;0.0;34.580647;;16 / 20;3258;2018-02-21 20:30:02:107
-1.326;1.9383;-0.8675;-2.3135;5.3937;-7.8608;-4.4807;5.1739;-2.9446;2.131;-1.3729;-0.0752;0.895;-8.51;-8.11;27.81;318.15;-55.4;167.81;0.0;1006.37;44.172;30.281076;-97.70932;478.77;532.4035811898309;;0.0;34.580647;;16 / 20;3268;2018-02-21 20:30:02:117
-1.326;1.9383;-0.8675;-2.3135;5.3937;-7.8608;-4.4807;5.1739;-2.9446;2.131;-1.3729;-0.0752;0.895;-8.51;-8.11;27.81;318.15;-55.4;167.81;0.0;1006.37;44.172;30.281076;-97.70932;478.77;532.4035811898309;;0.0;34.580647;;16 / 20;3278;2018-02-21 20:30:02:127
-1.326;1.9383;-0.8675;-2.3135;5.3937;-7.8608;-4.4807;5.1739;-2.9446;2.131;-1.3729;-0.0752;0.895;-8.51;-8.11;27.81;318.15;-55.4;167.81;0.0;1006.37;44.172;30.281076;-97.70932;478.77;532.4035811898309;;0.0;34.580647;;16 / 20;3287;2018-02-21 20:30:02:136
-1.326;1.9383;-0.8675;-2.3135;5.3937;-7.8608;-4.4807;5.1739;-2.9446;2.131;-1.3729;-0.0752;0.895;-8.51;-8.11;27.81;318.15;-55.4;167.81;0.0;1006.37;44.172;30.281076;-97.70932;478.77;532.4035811898309;;0.0;34.580647;;16 / 20;3298;2018-02-21 20:30:02:147
-1.326;1.9383;-0.8675;-2.3135;5.3937;-7.8608;-4.4807;5.1739;-2.9446;2.131;-1.3729;-0.0752;0.001;-5.41;-7.56;28.36;299.92;-33.35;163.6;0.0;1006.37;44.172;30.281076;-97.70932;478.77;532.4035811898309;;0.0;34.580647;;16 / 20;3307;2018-02-21 20:30:02:156
-1.326;1.9383;-0.8675;-1.2521;7.1428;-6.6067;-4.4807;5.1739;-2.9446;2.131;-1.3729;-0.0752;0.001;-5.41;-7.56;28.36;299.92;-33.35;163.6;0.0;1006.37;44.172;30.281076;-97.70932;478.77;532.4035811898309;;0.0;34.580647;;16 / 20;3318;2018-02-21 20:30:02:167
-1.326;1.9383;-0.8675;-1.2521;7.1428;-6.6067;-4.4807;5.1739;-2.9446;-2.69;1.602;0.9766;0.001;-5.41;-7.56;28.36;299.92;-33.35;163.6;0.0;1006.37;44.172;30.281076;-97.70932;478.77;532.4035811898309;;0.0;34.580647;;16 / 20;3328;2018-02-21 20:30:02:177
-1.326;1.9383;-0.8675;-1.2521;7.1428;-6.6067;-4.4807;5.1739;-2.9446;-2.69;1.602;0.9766;0.001;-5.41;-7.56;28.36;299.92;-33.35;163.6;0.0;1006.37;44.172;30.281076;-97.70932;478.77;532.4035811898309;;0.0;34.580647;;16 / 20;3338;2018-02-21 20:30:02:187
-1.326;1.9383;-0.8675;-1.2521;7.1428;-6.6067;-4.4807;5.1739;-2.9446;-2.69;1.602;0.9766;0.001;-5.41;-7.56;28.36;299.92;-33.35;163.6;0.0;1006.37;44.172;30.281076;-97.70932;478.77;532.4035811898309;;0.0;34.580647;;16 / 20;3348;2018-02-21 20:30:02:197
-1.326;1.9383;-0.8675;-1.2521;7.1428;-6.6067;-4.4807;5.1739;-2.9446;-2.69;1.602;0.9766;0.001;-5.41;-7.56;28.36;299.92;-33.35;163.6;0.0;1006.37;44.172;30.281076;-97.70932;478.77;532.4035811898309;;0.0;34.580647;;16 / 20;3358;2018-02-21 20:30:02:207
-5.2041;18.7378;-20.4987;-1.2521;7.1428;-6.6067;-4.4807;5.1739;-2.9446;-2.69;1.602;0.9766;0.001;-5.41;-7.56;28.36;299.92;-33.35;163.6;0.0;1006.37;44.172;30.281076;-97.70932;478.77;532.4035811898309;;0.0;34.580647;;16 / 20;3368;2018-02-21 20:30:02:217
-5.2041;18.7378;-20.4987;-1.2521;7.1428;-6.6067;0.3043;6.157;-4.8022;-2.69;1.602;0.9766;0.001;-5.41;-7.56;28.36;299.92;-33.35;163.6;0.0;1006.37;44.172;30.281076;-97.70932;478.77;532.4035811898309;;0.0;34.580647;;16 / 20;3378;2018-02-21 20:30:02:227
-5.2041;18.7378;-20.4987;-1.2521;7.1428;-6.6067;0.3043;6.157;-4.8022;-2.69;1.602;0.9766;0.001;-5.41;-7.56;28.36;299.92;-33.35;163.6;0.0;1006.37;44.172;30.281076;-97.70932;478.77;532.4035811898309;;0.0;34.580647;;16 / 20;3388;2018-02-21 20:30:02:237
-5.2041;18.7378;-20.4987;-1.2521;7.1428;-6.6067;0.3043;6.157;-4.8022;-2.69;1.602;0.9766;0.001;-5.41;-7.56;28.36;299.92;-33.35;163.6;0.0;1006.37;44.172;30.281076;-97.70932;478.77;532.4035811898309;;0.0;34.580647;;16 / 20;3397;2018-02-21 20:30:02:246
-5.2041;18.7378;-20.4987;-1.2521;7.1428;-6.6067;0.3043;6.157;-4.8022;-2.69;1.602;0.9766;0.001;-5.41;-7.56;28.36;299.92;-33.35;163.6;0.0;1006.37;44.172;30.281076;-97.70932;478.77;532.4035811898309;;0.0;34.580647;;16 / 20;3408;2018-02-21 20:30:02:257
-5.2041;18.7378;-20.4987;-1.2521;7.1428;-6.6067;0.3043;6.157;-4.8022;-2.69;1.602;0.9766;0.001;-5.41;-7.56;28.36;299.92;-33.35;163.6;0.0;1006.37;44.172;30.281076;-97.70932;478.77;532.4035811898309;;0.0;34.580647;;16 / 20;3417;2018-02-21 20:30:02:266
-5.2041;18.7378;-20.4987;-1.2521;7.1428;-6.6067;0.3043;6.157;-4.8022;-2.69;1.602;0.9766;0.001;-6.11;-11.16;19.71;301.76;-46.73;169.27;0.0;1006.37;44.172;30.281076;-97.70932;478.77;532.4035811898309;;0.0;34.580647;;16 / 20;3428;2018-02-21 20:30:02:277
-5.2041;18.7378;-20.4987;-1.2521;7.1428;-6.6067;0.3043;6.157;-4.8022;-2.69;1.602;0.9766;0.001;-6.11;-11.16;19.71;301.76;-46.73;169.27;0.0;1006.37;44.172;30.281076;-97.70932;478.77;532.4035811898309;;0.0;34.580647;;16 / 20;3438;2018-02-21 20:30:02:287
-5.2041;18.7378;-20.4987;-0.4964;8.7042;-4.4975;0.3043;6.157;-4.8022;-2.4905;0.8162;0.0426;0.001;-6.11;-11.16;19.71;301.76;-46.73;169.27;0.0;1006.37;44.172;30.281076;-97.70932;478.77;532.4035811898309;;0.0;34.580647;;16 / 20;3448;2018-02-21 20:30:02:297
-5.2041;18.7378;-20.4987;-0.4964;8.7042;-4.4975;0.3043;6.157;-4.8022;-2.4905;0.8162;0.0426;0.001;-6.11;-11.16;19.71;301.76;-46.73;169.27;0.0;1006.37;44.172;30.281076;-97.70932;478.77;532.4035811898309;;0.0;34.580647;;16 / 20;3457;2018-02-21 20:30:02:306
-5.2041;18.7378;-20.4987;-0.4964;8.7042;-4.4975;0.3043;6.157;-4.8022;-2.4905;0.8162;0.0426;0.001;-6.11;-11.16;19.71;301.76;-46.73;169.27;0.0;1007.11;44.172;30.281076;-97.70932;478.77;532.4035811898309;;0.0;34.580647;;16 / 20;3468;2018-02-21 20:30:02:317
-5.2041;18.7378;-20.4987;-0.4964;8.7042;-4.4975;0.3043;6.157;-4.8022;-2.4905;0.8162;0.0426;0.001;-6.11;-11.16;19.71;301.76;-46.73;169.27;0.0;1007.11;44.172;30.281076;-97.70932;478.77;532.4035811898309;;0.0;34.580647;;16 / 20;3477;2018-02-21 20:30:02:326
-5.2041;18.7378;-20.4987;-0.4964;8.7042;-4.4975;-1.5294;-1.3812;-1.1576;-2.4905;0.8162;0.0426;0.001;-6.11;-11.16;19.71;301.76;-46.73;169.27;0.0;1007.11;44.172;30.281076;-97.70932;478.77;532.4035811898309;;0.0;34.580647;;16 / 20;3488;2018-02-21 20:30:02:337
-5.2041;18.7378;-20.4987;-0.4964;8.7042;-4.4975;-1.5294;-1.3812;-1.1576;-2.4905;0.8162;0.0426;0.001;-6.11;-11.16;19.71;301.76;-46.73;169.27;0.0;1007.11;44.172;30.281076;-97.70932;478.77;532.4035811898309;;0.0;34.580647;;16 / 20;3497;2018-02-21 20:30:02:346
-0.8505;14.8797;-5.2142;-0.4964;8.7042;-4.4975;-1.5294;-1.3812;-1.1576;-2.4905;0.8162;0.0426;0.001;-6.11;-11.16;19.71;301.76;-46.73;169.27;0.0;1007.11;44.172;30.281076;-97.70932;478.77;532.4035811898309;;0.0;34.580647;;16 / 20;3507;2018-02-21 20:30:02:356
-0.8505;14.8797;-5.2142;-0.4964;8.7042;-4.4975;-1.5294;-1.3812;-1.1576;-2.4905;0.8162;0.0426;0.001;-6.11;-11.16;19.71;301.76;-46.73;169.27;0.0;1007.11;44.172;30.281076;-97.70932;478.77;532.4035811898309;;0.0;34.580647;;16 / 20;3518;2018-02-21 20:30:02:367
-0.8505;14.8797;-5.2142;-0.4964;8.7042;-4.4975;-1.5294;-1.3812;-1.1576;-2.4905;0.8162;0.0426;0.001;-6.11;-11.16;19.71;301.76;-46.73;169.27;0.0;1007.11;44.172;30.281076;-97.70932;478.77;532.4035811898309;;0.0;34.580647;;16 / 20;3527;2018-02-21 20:30:02:376
-0.8505;14.8797;-5.2142;-0.4964;8.7042;-4.4975;-1.5294;-1.3812;-1.1576;-2.4905;0.8162;0.0426;0.001;-4.91;-14.16;11.86;300.06;-62.53;173.7;0.0;1007.11;44.172;30.281076;-97.70932;478.77;532.4035811898309;;0.0;34.580647;;16 / 20;3538;2018-02-21 20:30:02:387
-0.8505;14.8797;-5.2142;-0.4964;8.7042;-4.4975;-1.5294;-1.3812;-1.1576;-2.4905;0.8162;0.0426;0.001;-4.91;-14.16;11.86;300.06;-62.53;173.7;0.0;1007.11;44.172;30.281076;-97.70932;478.77;532.4035811898309;;0.0;34.580647;;16 / 20;3548;2018-02-21 20:30:02:397
-0.8505;14.8797;-5.2142;-0.4964;8.7042;-4.4975;-1.5294;-1.3812;-1.1576;-2.4905;0.8162;0.0426;0.001;-4.91;-14.16;11.86;300.06;-62.53;173.7;0.0;1007.11;44.172;30.281076;-97.70932;478.77;532.4035811898309;;0.0;34.580647;;16 / 20;3558;2018-02-21 20:30:02:407
-0.8505;14.8797;-5.2142;-1.1502;9.4236;-2.4718;-1.5294;-1.3812;-1.1576;-1.5466;-0.1731;-0.695;0.001;-4.91;-14.16;11.86;300.06;-62.53;173.7;0.0;1007.11;46.295;30.281076;-97.70932;478.77;532.4035811898309;;0.0;34.580647;;15 / 20;3568;2018-02-21 20:30:02:417
-0.8505;14.8797;-5.2142;-1.1502;9.4236;-2.4718;-1.5294;-1.3812;-1.1576;-1.5466;-0.1731;-0.695;0.001;-4.91;-14.16;11.86;300.06;-62.53;173.7;0.0;1007.11;46.295;30.281076;-97.70932;478.77;532.4035811898309;;0.0;34.580647;;15 / 20;3578;2018-02-21 20:30:02:427
-0.8505;14.8797;-5.2142;-1.1502;9.4236;-2.4718;-1.5294;-1.3812;-1.1576;-1.5466;-0.1731;-0.695;0.001;-4.91;-14.16;11.86;300.06;-62.53;173.7;0.0;1007.11;46.295;30.281076;-97.70932;478.77;532.4035811898309;;0.0;34.580647;;15 / 20;3588;2018-02-21 20:30:02:437
-0.8505;14.8797;-5.2142;-1.1502;9.4236;-2.4718;-1.5294;-1.3812;-1.1576;-1.5466;-0.1731;-0.695;0.001;-4.91;-14.16;11.86;300.06;-62.53;173.7;0.0;1007.11;46.295;30.281076;-97.70932;478.77;532.4035811898309;;0.0;34.580647;;15 / 20;3598;2018-02-21 20:30:02:447
-0.8505;14.8797;-5.2142;-1.1502;9.4236;-2.4718;-0.0674;-2.8012;-0.1488;-1.5466;-0.1731;-0.695;0.001;-4.91;-14.16;11.86;300.06;-62.53;173.7;0.0;1007.11;46.295;30.281076;-97.70932;478.77;532.4035811898309;;0.0;34.580647;;15 / 20;3608;2018-02-21 20:30:02:457
-0.8505;14.8797;-5.2142;-1.1502;9.4236;-2.4718;-0.0674;-2.8012;-0.1488;-1.5466;-0.1731;-0.695;0.001;-4.91;-14.16;11.86;300.06;-62.53;173.7;0.0;1007.11;46.295;30.281076;-97.70932;478.77;532.4035811898309;;0.0;34.580647;;15 / 20;3617;2018-02-21 20:30:02:466
-0.8505;14.8797;-5.2142;-1.1502;9.4236;-2.4718;-0.0674;-2.8012;-0.1488;-1.5466;-0.1731;-0.695;0.001;-4.91;-14.16;11.86;300.06;-62.53;173.7;0.0;1007.11;46.295;30.281076;-97.70932;478.77;532.4035811898309;;0.0;34.580647;;15 / 20;3628;2018-02-21 20:30:02:477
-0.8505;14.8797;-5.2142;-1.1502;9.4236;-2.4718;-0.0674;-2.8012;-0.1488;-1.5466;-0.1731;-0.695;0.001;-4.91;-14.16;11.86;300.06;-62.53;173.7;0.0;1007.11;46.295;30.281076;-97.70932;478.77;532.4035811898309;;0.0;34.580647;;15 / 20;3637;2018-02-21 20:30:02:486
-0.6744;12.4886;-2.7811;-1.1502;9.4236;-2.4718;-0.0674;-2.8012;-0.1488;-1.5466;-0.1731;-0.695;0.001;-4.91;-14.16;11.86;300.06;-62.53;173.7;0.0;1007.11;46.295;30.281076;-97.70932;478.77;532.4035811898309;;0.0;34.580647;;15 / 20;3648;2018-02-21 20:30:02:497
-0.6744;12.4886;-2.7811;-1.1502;9.4236;-2.4718;-0.0674;-2.8012;-0.1488;-1.5466;-0.1731;-0.695;0.001;-1.01;-16.11;6.71;287.87;-73.86;155.05;0.0;1007.11;46.295;30.281076;-97.70932;478.77;532.4035811898309;;0.0;34.580647;;15 / 20;3658;2018-02-21 20:30:02:507
-0.6744;12.4886;-2.7811;-1.1502;9.4236;-2.4718;-0.0674;-2.8012;-0.1488;-1.5466;-0.1731;-0.695;0.001;-1.01;-16.11;6.71;287.87;-73.86;155.05;0.0;1004.74;46.295;30.281076;-97.70932;478.77;532.4035811898309;;0.0;34.580647;;15 / 20;3668;2018-02-21 20:30:02:517
-0.6744;12.4886;-2.7811;-1.1502;9.4236;-2.4718;-0.0674;-2.8012;-0.1488;-1.5466;-0.1731;-0.695;0.001;-1.01;-16.11;6.71;287.87;-73.86;155.05;0.0;1004.74;46.295;30.281076;-97.70932;478.77;532.4035811898309;;0.0;34.580647;;15 / 20;3677;2018-02-21 20:30:02:526
-0.6744;12.4886;-2.7811;-1.1566;9.6728;-1.1557;-0.0674;-2.8012;-0.1488;-1.5466;-0.1731;-0.695;0.001;-1.01;-16.11;6.71;287.87;-73.86;155.05;0.0;1004.74;46.295;30.281076;-97.70932;478.77;532.4035811898309;;0.0;34.580647;;15 / 20;3688;2018-02-21 20:30:02:537
-0.6744;12.4886;-2.7811;-1.1566;9.6728;-1.1557;-0.0674;-2.8012;-0.1488;-1.0083;0.5726;0.0068;0.001;-1.01;-16.11;6.71;287.87;-73.86;155.05;0.0;1004.74;46.295;30.281076;-97.70932;478.77;532.4035811898309;;0.0;34.580647;;15 / 20;3697;2018-02-21 20:30:02:546
-0.6744;12.4886;-2.7811;-1.1566;9.6728;-1.1557;-0.0674;-2.8012;-0.1488;-1.0083;0.5726;0.0068;0.001;-1.01;-16.11;6.71;287.87;-73.86;155.05;0.0;1004.74;46.295;30.281076;-97.70932;478.77;532.4035811898309;;0.0;34.580647;;15 / 20;3708;2018-02-21 20:30:02:557
-0.6744;12.4886;-2.7811;-1.1566;9.6728;-1.1557;-1.3656;1.2808;0.3826;-1.0083;0.5726;0.0068;0.001;-1.01;-16.11;6.71;287.87;-73.86;155.05;0.0;1004.74;46.295;30.281076;-97.70932;478.77;532.4035811898309;;0.0;34.580647;;15 / 20;3717;2018-02-21 20:30:02:566
-0.6744;12.4886;-2.7811;-1.1566;9.6728;-1.1557;-1.3656;1.2808;0.3826;-1.0083;0.5726;0.0068;0.001;-1.01;-16.11;6.71;287.87;-73.86;155.05;0.0;1004.74;46.295;30.281076;-97.70932;478.77;532.4035811898309;;0.0;34.580647;;15 / 20;3728;2018-02-21 20:30:02:577
-0.6744;12.4886;-2.7811;-1.1566;9.6728;-1.1557;-1.3656;1.2808;0.3826;-1.0083;0.5726;0.0068;0.001;-1.01;-16.11;6.71;287.87;-73.86;155.05;0.0;1004.74;46.295;30.281076;-97.70932;478.77;532.4035811898309;;0.0;34.580647;;15 / 20;3738;2018-02-21 20:30:02:587
-0.6744;12.4886;-2.7811;-1.1566;9.6728;-1.1557;-1.3656;1.2808;0.3826;-1.0083;0.5726;0.0068;0.001;-1.01;-16.11;6.71;287.87;-73.86;155.05;0.0;1004.74;46.295;30.281076;-97.70932;478.77;532.4035811898309;;0.0;34.580647;;15 / 20;3748;2018-02-21 20:30:02:597
-0.6744;12.4886;-2.7811;-1.1566;9.6728;-1.1557;-1.3656;1.2808;0.3826;-1.0083;0.5726;0.0068;0.001;-1.01;-16.11;6.71;287.87;-73.86;155.05;0.0;1004.74;46.295;30.281076;-97.70932;478.77;532.4035811898309;;0.0;34.580647;;15 / 20;3757;2018-02-21 20:30:02:606
-0.6744;12.4886;-2.7811;-1.1566;9.6728;-1.1557;-1.3656;1.2808;0.3826;-1.0083;0.5726;0.0068;0.001;0.59;-17.41;1.96;223.65;-80.41;134.98;0.0;1004.74;46.295;30.281076;-97.70932;478.77;532.4035811898309;;0.0;34.580647;;15 / 20;3768;2018-02-21 20:30:02:617
-0.6744;12.4886;-2.7811;-1.1566;9.6728;-1.1557;-1.3656;1.2808;0.3826;-1.0083;0.5726;0.0068;0.001;0.59;-17.41;1.96;223.65;-80.41;134.98;0.0;1004.74;46.295;30.281076;-97.70932;478.77;532.4035811898309;;0.0;34.580647;;15 / 20;3777;2018-02-21 20:30:02:626
1.5916;8.3122;-0.8854;-1.1566;9.6728;-1.1557;-1.3656;1.2808;0.3826;-1.0083;0.5726;0.0068;0.001;0.59;-17.41;1.96;223.65;-80.41;134.98;0.0;1004.74;46.295;30.281076;-97.70932;478.77;532.4035811898309;;0.0;34.580647;;15 / 20;3788;2018-02-21 20:30:02:637
1.5916;8.3122;-0.8854;-1.1566;9.6728;-1.1557;-1.3656;1.2808;0.3826;-1.0083;0.5726;0.0068;0.001;0.59;-17.41;1.96;223.65;-80.41;134.98;0.0;1004.74;46.295;30.281076;-97.70932;478.77;532.4035811898309;;0.0;34.580647;;15 / 20;3798;2018-02-21 20:30:02:647
1.5916;8.3122;-0.8854;-1.1566;9.6728;-1.1557;-1.3656;1.2808;0.3826;-1.0083;0.5726;0.0068;0.001;0.59;-17.41;1.96;223.65;-80.41;134.98;0.0;1004.74;46.295;30.281076;-97.70932;478.77;532.4035811898309;;0.0;34.580647;;15 / 20;3808;2018-02-21 20:30:02:657
1.5916;8.3122;-0.8854;-1.5583;9.6854;0.0084;-1.3656;1.2808;0.3826;-0.9733;-0.125;-0.2788;0.001;0.59;-17.41;1.96;223.65;-80.41;134.98;0.0;1004.74;46.295;30.281076;-97.70932;478.77;532.4035811898309;;0.0;34.580647;;15 / 20;3818;2018-02-21 20:30:02:667
1.5916;8.3122;-0.8854;-1.5583;9.6854;0.0084;-1.3656;1.2808;0.3826;-0.9733;-0.125;-0.2788;0.001;0.59;-17.41;1.96;223.65;-80.41;134.98;0.0;1004.74;46.295;30.281076;-97.70932;478.77;532.4035811898309;;0.0;34.580647;;15 / 20;3827;2018-02-21 20:30:02:676
1.5916;8.3122;-0.8854;-1.5583;9.6854;0.0084;0.8237;-3.1196;1.5725;-0.9733;-0.125;-0.2788;0.001;0.59;-17.41;1.96;223.65;-80.41;134.98;0.0;1004.74;46.295;30.281076;-97.70932;478.77;532.4035811898309;;0.0;34.580647;;15 / 20;3838;2018-02-21 20:30:02:687
1.5916;8.3122;-0.8854;-1.5583;9.6854;0.0084;0.8237;-3.1196;1.5725;-0.9733;-0.125;-0.2788;0.001;0.59;-17.41;1.96;223.65;-80.41;134.98;0.0;1004.74;46.295;30.281076;-97.70932;478.77;532.4035811898309;;0.0;34.580647;;15 / 20;3848;2018-02-21 20:30:02:697
1.5916;8.3122;-0.8854;-1.5583;9.6854;0.0084;0.8237;-3.1196;1.5725;-0.9733;-0.125;-0.2788;0.001;0.59;-17.41;1.96;223.65;-80.41;134.98;0.0;1004.74;46.295;30.281076;-97.70932;478.77;532.4035811898309;;0.0;34.580647;;15 / 20;3858;2018-02-21 20:30:02:707
1.5916;8.3122;-0.8854;-1.5583;9.6854;0.0084;0.8237;-3.1196;1.5725;-0.9733;-0.125;-0.2788;0.001;0.59;-17.41;1.96;223.65;-80.41;134.98;0.0;1004.3;46.295;30.281076;-97.70932;478.77;532.4035811898309;;0.0;34.580647;;15 / 20;3867;2018-02-21 20:30:02:716
1.5916;8.3122;-0.8854;-1.5583;9.6854;0.0084;0.8237;-3.1196;1.5725;-0.9733;-0.125;-0.2788;0.001;0.59;-17.41;1.96;223.65;-80.41;134.98;0.0;1004.3;46.295;30.281076;-97.70932;478.77;532.4035811898309;;0.0;34.580647;;15 / 20;3878;2018-02-21 20:30:02:727
1.5916;8.3122;-0.8854;-1.5583;9.6854;0.0084;0.8237;-3.1196;1.5725;-0.9733;-0.125;-0.2788;0.001;4.29;-17.81;-2.19;60.92;-80.86;89.69;0.0;1004.3;46.295;30.281076;-97.70932;478.77;532.4035811898309;;0.0;34.580647;;15 / 20;3887;2018-02-21 20:30:02:736
1.5916;8.3122;-0.8854;-1.5583;9.6854;0.0084;0.8237;-3.1196;1.5725;-0.9733;-0.125;-0.2788;0.001;4.29;-17.81;-2.19;60.92;-80.86;89.69;0.0;1004.3;37.958;30.281076;-97.70932;478.77;532.4035811898309;;0.0;34.580647;;15 / 20;3898;2018-02-21 20:30:02:747
1.5916;8.3122;-0.8854;-1.5583;9.6854;0.0084;0.8237;-3.1196;1.5725;-0.9733;-0.125;-0.2788;0.001;4.29;-17.81;-2.19;60.92;-80.86;89.69;0.0;1004.3;37.958;30.281076;-97.70932;478.77;532.4035811898309;;0.0;34.580647;;15 / 20;3907;2018-02-21 20:30:02:756
1.5916;8.3122;-0.8854;-1.5583;9.6854;0.0084;0.8237;-3.1196;1.5725;-0.9733;-0.125;-0.2788;0.001;4.29;-17.81;-2.19;60.92;-80.86;89.69;0.0;1004.3;37.958;30.281076;-97.70932;478.77;532.4035811898309;;0.0;34.580647;;15 / 20;3918;2018-02-21 20:30:02:767
-5.1083;11.9624;0.0498;-1.5583;9.6854;0.0084;0.8237;-3.1196;1.5725;-0.9733;-0.125;-0.2788;0.001;4.29;-17.81;-2.19;60.92;-80.86;89.69;0.0;1004.3;37.958;30.281076;-97.70932;478.77;532.4035811898309;;0.0;34.580647;;15 / 20;3928;2018-02-21 20:30:02:777
-5.1083;11.9624;0.0498;-2.0127;9.5765;0.6898;0.8237;-3.1196;1.5725;-0.9733;-0.125;-0.2788;0.001;4.29;-17.81;-2.19;60.92;-80.86;89.69;0.0;1004.3;37.958;30.281076;-97.70932;478.77;532.4035811898309;;0.0;34.580647;;15 / 20;3937;2018-02-21 20:30:02:786
-5.1083;11.9624;0.0498;-2.0127;9.5765;0.6898;-1.7738;-3.8563;1.5993;-0.3562;0.2894;-0.2274;0.001;4.29;-17.81;-2.19;60.92;-80.86;89.69;0.0;1004.3;37.958;30.281076;-97.70932;478.77;532.4035811898309;;0.0;34.580647;;15 / 20;3948;2018-02-21 20:30:02:797
-5.1083;11.9624;0.0498;-2.0127;9.5765;0.6898;-1.7738;-3.8563;1.5993;-0.3562;0.2894;-0.2274;0.001;4.29;-17.81;-2.19;60.92;-80.86;89.69;0.0;1004.3;37.958;30.281076;-97.70932;478.77;532.4035811898309;;0.0;34.580647;;15 / 20;3958;2018-02-21 20:30:02:807
-5.1083;11.9624;0.0498;-2.0127;9.5765;0.6898;-1.7738;-3.8563;1.5993;-0.3562;0.2894;-0.2274;0.001;4.29;-17.81;-2.19;60.92;-80.86;89.69;0.0;1004.3;37.958;30.281076;-97.70932;478.77;532.4035811898309;;0.0;34.580647;;15 / 20;3967;2018-02-21 20:30:02:816
-5.1083;11.9624;0.0498;-2.0127;9.5765;0.6898;-1.7738;-3.8563;1.5993;-0.3562;0.2894;-0.2274;0.001;4.29;-17.81;-2.19;60.92;-80.86;89.69;0.0;1004.3;37.958;30.281076;-97.70932;478.77;532.4035811898309;;0.0;34.580647;;15 / 20;3978;2018-02-21 20:30:02:827
-5.1083;11.9624;0.0498;-2.0127;9.5765;0.6898;-1.7738;-3.8563;1.5993;-0.3562;0.2894;-0.2274;0.001;4.29;-17.81;-2.19;60.92;-80.86;89.69;0.0;1004.3;37.958;30.281076;-97.70932;478.77;532.4035811898309;;0.0;34.580647;;15 / 20;3987;2018-02-21 20:30:02:836
-5.1083;11.9624;0.0498;-2.0127;9.5765;0.6898;-1.7738;-3.8563;1.5993;-0.3562;0.2894;-0.2274;0.001;6.59;-19.41;-1.94;352.77;-77.47;71.08;0.0;1004.3;37.958;30.281076;-97.70932;478.77;532.4035811898309;;0.0;34.580647;;15 / 20;3997;2018-02-21 20:30:02:846
-5.1083;11.9624;0.0498;-2.0127;9.5765;0.6898;-1.7738;-3.8563;1.5993;-0.3562;0.2894;-0.2274;0.001;6.59;-19.41;-1.94;352.77;-77.47;71.08;0.0;1004.3;37.958;30.281076;-97.70932;478.77;532.4035811898309;;0.0;34.580647;;15 / 20;4008;2018-02-21 20:30:02:857
-5.1083;11.9624;0.0498;-2.0127;9.5765;0.6898;-1.7738;-3.8563;1.5993;-0.3562;0.2894;-0.2274;0.001;6.59;-19.41;-1.94;352.77;-77.47;71.08;0.0;1004.3;37.958;30.281076;-97.70932;478.77;532.4035811898309;;0.0;34.580647;;15 / 20;4018;2018-02-21 20:30:02:867
-5.1083;11.9624;0.0498;-2.0127;9.5765;0.6898;-1.7738;-3.8563;1.5993;-0.3562;0.2894;-0.2274;0.001;6.59;-19.41;-1.94;352.77;-77.47;71.08;0.0;1004.3;37.958;30.281076;-97.70932;478.77;532.4035811898309;;0.0;34.580647;;15 / 20;4028;2018-02-21 20:30:02:877
-5.1083;11.9624;0.0498;-2.0127;9.5765;0.6898;-1.7738;-3.8563;1.5993;-0.3562;0.2894;-0.2274;0.001;6.59;-19.41;-1.94;352.77;-77.47;71.08;0.0;1004.3;37.958;30.281076;-97.70932;478.77;532.4035811898309;;0.0;34.580647;;15 / 20;4037;2018-02-21 20:30:02:886
-5.1083;11.9624;0.0498;-2.0127;9.5765;0.6898;-1.7738;-3.8563;1.5993;-0.3562;0.2894;-0.2274;0.001;6.59;-19.41;-1.94;352.77;-77.47;71.08;0.0;1004.3;37.958;30.281076;-97.70932;478.77;532.4035811898309;;0.0;34.580647;;15 / 20;4048;2018-02-21 20:30:02:897
-2.9141;11.7225;-5.2978;-2.0127;9.5765;0.6898;-1.7738;-3.8563;1.5993;-0.3562;0.2894;-0.2274;0.001;6.59;-19.41;-1.94;352.77;-77.47;71.08;0.0;1004.3;37.958;30.281076;-97.70932;478.77;532.4035811898309;;0.0;34.580647;;15 / 20;4058;2018-02-21 20:30:02:907
-2.9141;11.7225;-5.2978;-2.1285;9.365;-2.0007;-1.5152;-2.4139;-2.9908;3.275;0.424;-0.2312;0.001;6.59;-19.41;-1.94;352.77;-77.47;71.08;0.0;1003.82;37.958;30.281076;-97.70932;478.77;532.4035811898309;;0.0;34.580647;;15 / 20;4067;2018-02-21 20:30:02:916
-2.9141;11.7225;-5.2978;-2.1285;9.365;-2.0007;-1.5152;-2.4139;-2.9908;3.275;0.424;-0.2312;0.001;6.59;-19.41;-1.94;352.77;-77.47;71.08;0.0;1003.82;37.958;30.281076;-97.70932;478.77;532.4035811898309;;0.0;34.580647;;15 / 20;4078;2018-02-21 20:30:02:927
-2.9141;11.7225;-5.2978;-2.1285;9.365;-2.0007;-1.5152;-2.4139;-2.9908;3.275;0.424;-0.2312;0.001;6.59;-19.41;-1.94;352.77;-77.47;71.08;0.0;1003.82;37.958;30.281076;-97.70932;478.77;532.4035811898309;;0.0;34.580647;;15 / 20;4088;2018-02-21 20:30:02:937
-2.9141;11.7225;-5.2978;-2.1285;9.365;-2.0007;-1.5152;-2.4139;-2.9908;3.275;0.424;-0.2312;0.001;6.59;-19.41;-1.94;352.77;-77.47;71.08;0.0;1003.82;37.958;30.281076;-97.70932;478.77;532.4035811898309;;0.0;34.580647;;15 / 20;4098;2018-02-21 20:30:02:947
-2.9141;11.7225;-5.2978;-2.1285;9.365;-2.0007;-1.5152;-2.4139;-2.9908;3.275;0.424;-0.2312;0.001;6.59;-19.41;-1.94;352.77;-77.47;71.08;0.0;1003.82;37.958;30.281076;-97.70932;478.77;532.4035811898309;;0.0;34.580647;;15 / 20;4108;2018-02-21 20:30:02:957
-2.9141;11.7225;-5.2978;-2.1285;9.365;-2.0007;-1.5152;-2.4139;-2.9908;3.275;0.424;-0.2312;0.001;9.09;-20.41;10.41;350.68;-72.68;133.23;0.0;1003.82;37.958;30.281076;-97.70932;478.77;532.4035811898309;;0.0;34.580647;;15 / 20;4117;2018-02-21 20:30:02:966
-2.9141;11.7225;-5.2978;-2.1285;9.365;-2.0007;-1.5152;-2.4139;-2.9908;3.275;0.424;-0.2312;0.001;9.09;-20.41;10.41;350.68;-72.68;133.23;0.0;1003.82;37.958;30.281076;-97.70932;478.77;532.4035811898309;;0.0;34.580647;;15 / 20;4128;2018-02-21 20:30:02:977
-2.9141;11.7225;-5.2978;-2.1285;9.365;-2.0007;-1.5152;-2.4139;-2.9908;3.275;0.424;-0.2312;0.001;9.09;-20.41;10.41;350.68;-72.68;133.23;0.0;1003.82;37.958;30.281076;-97.70932;478.77;532.4035811898309;;0.0;34.580647;;15 / 20;4138;2018-02-21 20:30:02:987
-2.9141;11.7225;-5.2978;-2.1285;9.365;-2.0007;-1.5152;-2.4139;-2.9908;3.275;0.424;-0.2312;0.001;9.09;-20.41;10.41;350.68;-72.68;133.23;0.0;1003.82;37.958;30.281076;-97.70932;478.77;532.4035811898309;;0.0;34.580647;;15 / 20;4148;2018-02-21 20:30:02:997
-2.9141;11.7225;-5.2978;-2.1285;9.365;-2.0007;-1.5152;-2.4139;-2.9908;3.275;0.424;-0.2312;0.001;9.09;-20.41;10.41;350.68;-72.68;133.23;0.0;1003.82;37.958;30.281076;-97.70932;478.77;532.4035811898309;;0.0;34.580647;;15 / 20;4158;2018-02-21 20:30:03:007
-2.9141;11.7225;-5.2978;-2.1285;9.365;-2.0007;-1.5152;-2.4139;-2.9908;3.275;0.424;-0.2312;0.001;9.09;-20.41;10.41;350.68;-72.68;133.23;0.0;1003.82;37.958;30.281076;-97.70932;478.77;532.4035811898309;;0.0;34.580647;;15 / 20;4167;2018-02-21 20:30:03:016
-2.9141;11.7225;-5.2978;-2.1285;9.365;-2.0007;-1.6028;-0.3884;-1.5217;3.275;0.424;-0.2312;0.001;9.09;-20.41;10.41;350.68;-72.68;133.23;0.0;1003.82;37.958;30.281076;-97.70932;478.77;532.4035811898309;;0.0;34.580647;;15 / 20;4178;2018-02-21 20:30:03:027
-2.9141;11.7225;-5.2978;-1.349;8.1565;-5.2808;-1.6028;-0.3884;-1.5217;3.275;0.424;-0.2312;0.001;9.09;-20.41;10.41;350.68;-72.68;133.23;0.0;1003.82;37.958;30.281076;-97.70932;478.77;532.4035811898309;;0.0;34.580647;;15 / 20;4188;2018-02-21 20:30:03:037
-0.3978;8.6864;-2.24;-1.349;8.1565;-5.2808;-1.6028;-0.3884;-1.5217;3.4699;-1.393;0.8927;0.001;9.09;-20.41;10.41;350.68;-72.68;133.23;0.0;1003.82;37.958;30.281076;-97.70932;478.77;532.4035811898309;;0.0;34.580647;;15 / 20;4197;2018-02-21 20:30:03:046
-0.3978;8.6864;-2.24;-1.349;8.1565;-5.2808;-1.6028;-0.3884;-1.5217;3.4699;-1.393;0.8927;0.001;9.09;-20.41;10.41;350.68;-72.68;133.23;0.0;1003.82;37.958;30.281076;-97.70932;478.77;532.4035811898309;;0.0;34.580647;;15 / 20;4208;2018-02-21 20:30:03:057
-0.3978;8.6864;-2.24;-1.349;8.1565;-5.2808;-1.6028;-0.3884;-1.5217;3.4699;-1.393;0.8927;0.001;9.09;-20.41;10.41;350.68;-72.68;133.23;0.0;1003.82;39.052;30.281076;-97.70932;478.77;532.4035811898309;;0.0;34.580647;;15 / 20;4218;2018-02-21 20:30:03:067
-0.3978;8.6864;-2.24;-1.349;8.1565;-5.2808;-1.6028;-0.3884;-1.5217;3.4699;-1.393;0.8927;0.001;7.19;-15.26;25.21;2.57;-56.25;165.67;0.0;1003.82;39.052;30.281076;-97.70932;478.77;532.4035811898309;;0.0;34.580647;;15 / 20;4227;2018-02-21 20:30:03:076
-0.3978;8.6864;-2.24;-1.349;8.1565;-5.2808;-1.6028;-0.3884;-1.5217;3.4699;-1.393;0.8927;0.001;7.19;-15.26;25.21;2.57;-56.25;165.67;0.0;1003.82;39.052;30.281076;-97.70932;478.77;532.4035811898309;;0.0;34.580647;;15 / 20;4238;2018-02-21 20:30:03:087
-0.3978;8.6864;-2.24;-1.349;8.1565;-5.2808;-1.6028;-0.3884;-1.5217;3.4699;-1.393;0.8927;0.001;7.19;-15.26;25.21;2.57;-56.25;165.67;0.0;1003.82;39.052;30.281076;-97.70932;478.77;532.4035811898309;;0.0;34.580647;;15 / 20;4248;2018-02-21 20:30:03:097
-0.3978;8.6864;-2.24;-1.349;8.1565;-5.2808;-1.6028;-0.3884;-1.5217;3.4699;-1.393;0.8927;0.001;7.19;-15.26;25.21;2.57;-56.25;165.67;0.0;1003.82;39.052;30.281076;-97.70932;478.77;532.4035811898309;;0.0;34.580647;;15 / 20;4257;2018-02-21 20:30:03:106
-0.3978;8.6864;-2.24;-1.349;8.1565;-5.2808;-1.6028;-0.3884;-1.5217;3.4699;-1.393;0.8927;0.001;7.19;-15.26;25.21;2.57;-56.25;165.67;0.0;1003.66;39.052;30.281076;-97.70932;478.77;532.4035811898309;;0.0;34.580647;;15 / 20;4268;2018-02-21 20:30:03:117
-0.3978;8.6864;-2.24;-1.349;8.1565;-5.2808;-1.6028;-0.3884;-1.5217;3.4699;-1.393;0.8927;0.001;7.19;-15.26;25.21;2.57;-56.25;165.67;0.0;1003.66;39.052;30.281076;-97.70932;478.77;532.4035811898309;;0.0;34.580647;;15 / 20;4278;2018-02-21 20:30:03:127
-0.3978;8.6864;-2.24;-1.349;8.1565;-5.2808;-1.6028;-0.3884;-1.5217;3.4699;-1.393;0.8927;0.001;7.19;-15.26;25.21;2.57;-56.25;165.67;0.0;1003.66;39.052;30.281076;-97.70932;478.77;532.4035811898309;;0.0;34.580647;;15 / 20;4288;2018-02-21 20:30:03:137
-0.3978;8.6864;-2.24;-1.349;8.1565;-5.2808;1.4152;1.8437;-5.7251;3.4699;-1.393;0.8927;0.001;7.19;-15.26;25.21;2.57;-56.25;165.67;0.0;1003.66;39.052;30.281076;-97.70932;478.77;532.4035811898309;;0.0;34.580647;;15 / 20;4298;2018-02-21 20:30:03:147
-0.3978;8.6864;-2.24;-1.349;8.1565;-5.2808;1.4152;1.8437;-5.7251;3.4699;-1.393;0.8927;0.001;7.19;-15.26;25.21;2.57;-56.25;165.67;0.0;1003.66;39.052;30.281076;-97.70932;478.77;532.4035811898309;;0.0;34.580647;;15 / 20;4308;2018-02-21 20:30:03:157
-0.3978;8.6864;-2.24;-2.1013;5.6638;-7.7293;1.4152;1.8437;-5.7251;2.6493;-0.7878;-0.1747;0.001;7.19;-15.26;25.21;2.57;-56.25;165.67;0.0;1003.66;39.052;30.281076;-97.70932;478.77;532.4035811898309;;0.0;34.580647;;15 / 20;4318;2018-02-21 20:30:03:167
-0.3978;8.6864;-2.24;-2.1013;5.6638;-7.7293;1.4152;1.8437;-5.7251;2.6493;-0.7878;-0.1747;0.001;7.19;-15.26;25.21;2.57;-56.25;165.67;0.0;1003.66;39.052;30.281076;-97.70932;478.77;532.4035811898309;;0.0;34.580647;;15 / 20;4328;2018-02-21 20:30:03:177
-3.9801;5.4507;-2.0154;-2.1013;5.6638;-7.7293;1.4152;1.8437;-5.7251;2.6493;-0.7878;-0.1747;0.001;7.19;-15.26;25.21;2.57;-56.25;165.67;0.0;1003.66;39.052;30.281076;-97.70932;478.77;532.4035811898309;;0.0;34.580647;;15 / 20;4337;2018-02-21 20:30:03:186
-3.9801;5.4507;-2.0154;-2.1013;5.6638;-7.7293;1.4152;1.8437;-5.7251;2.6493;-0.7878;-0.1747;0.001;11.09;-3.46;37.16;2.62;-35.26;164.79;0.0;1003.66;39.052;30.281076;-97.70932;478.77;532.4035811898309;;0.0;34.580647;;15 / 20;4348;2018-02-21 20:30:03:197
-3.9801;5.4507;-2.0154;-2.1013;5.6638;-7.7293;1.4152;1.8437;-5.7251;2.6493;-0.7878;-0.1747;0.001;11.09;-3.46;37.16;2.62;-35.26;164.79;0.0;1003.66;39.052;30.281076;-97.70932;478.77;532.4035811898309;;0.0;34.580647;;15 / 20;4358;2018-02-21 20:30:03:207
-3.9801;5.4507;-2.0154;-2.1013;5.6638;-7.7293;1.4152;1.8437;-5.7251;2.6493;-0.7878;-0.1747;0.001;11.09;-3.46;37.16;2.62;-35.26;164.79;0.0;1003.66;39.052;30.281076;-97.70932;478.77;532.4035811898309;;0.0;34.580647;;15 / 20;4368;2018-02-21 20:30:03:217
-3.9801;5.4507;-2.0154;-2.1013;5.6638;-7.7293;1.4152;1.8437;-5.7251;2.6493;-0.7878;-0.1747;0.001;11.09;-3.46;37.16;2.62;-35.26;164.79;0.0;1003.66;39.052;30.281076;-97.70932;478.77;532.4035811898309;;0.0;34.580647;;15 / 20;4378;2018-02-21 20:30:03:227
-3.9801;5.4507;-2.0154;-2.1013;5.6638;-7.7293;1.4152;1.8437;-5.7251;2.6493;-0.7878;-0.1747;0.001;11.09;-3.46;37.16;2.62;-35.26;164.79;0.0;1003.66;39.052;30.281076;-97.70932;478.77;532.4035811898309;;0.0;34.580647;;15 / 20;4388;2018-02-21 20:30:03:237
-3.9801;5.4507;-2.0154;-2.1013;5.6638;-7.7293;1.4152;1.8437;-5.7251;2.6493;-0.7878;-0.1747;0.001;11.09;-3.46;37.16;2.62;-35.26;164.79;0.0;1003.66;39.052;30.281076;-97.70932;478.77;532.4035811898309;;0.0;34.580647;;15 / 20;4398;2018-02-21 20:30:03:247
-3.9801;5.4507;-2.0154;-2.1013;5.6638;-7.7293;-3.2435;4.4171;-2.9843;2.6493;-0.7878;-0.1747;0.001;11.09;-3.46;37.16;2.62;-35.26;164.79;0.0;1003.66;39.052;30.281076;-97.70932;478.77;532.4035811898309;;0.0;34.580647;;15 / 20;4407;2018-02-21 20:30:03:256
-3.9801;5.4507;-2.0154;-2.1013;5.6638;-7.7293;-3.2435;4.4171;-2.9843;2.6493;-0.7878;-0.1747;0.001;11.09;-3.46;37.16;2.62;-35.26;164.79;0.0;1003.66;39.052;30.281076;-97.70932;478.77;532.4035811898309;;0.0;34.580647;;15 / 20;4418;2018-02-21 20:30:03:267
-3.9801;5.4507;-2.0154;-2.1013;5.6638;-7.7293;-3.2435;4.4171;-2.9843;2.6493;-0.7878;-0.1747;0.001;11.09;-3.46;37.16;2.62;-35.26;164.79;0.0;1003.66;39.052;30.281076;-97.70932;478.77;532.4035811898309;;0.0;34.580647;;15 / 20;4428;2018-02-21 20:30:03:277
-3.9801;5.4507;-2.0154;-2.2976;5.2447;-7.9655;-3.2435;4.4171;-2.9843;2.6493;-0.7878;-0.1747;0.001;11.09;-3.46;37.16;2.62;-35.26;164.79;0.0;1003.66;39.052;30.281076;-97.70932;478.77;532.4035811898309;;0.0;34.580647;;15 / 20;4437;2018-02-21 20:30:03:286
-3.9801;5.4507;-2.0154;-2.2976;5.2447;-7.9655;-3.2435;4.4171;-2.9843;-0.4585;-0.0152;0.203;0.001;11.09;-3.46;37.16;2.62;-35.26;164.79;0.0;1003.66;39.052;30.281076;-97.70932;478.77;532.4035811898309;;0.0;34.580647;;15 / 20;4448;2018-02-21 20:30:03:297
-3.9801;5.4507;-2.0154;-2.2976;5.2447;-7.9655;-3.2435;4.4171;-2.9843;-0.4585;-0.0152;0.203;0.001;11.89;-0.46;38.66;1.89;-32.32;163.91;0.0;1003.66;39.052;30.281076;-97.70932;478.77;532.4035811898309;;0.0;34.580647;;15 / 20;4457;2018-02-21 20:30:03:306
-3.9801;5.4507;-2.0154;-2.2976;5.2447;-7.9655;-3.2435;4.4171;-2.9843;-0.4585;-0.0152;0.203;0.001;11.89;-0.46;38.66;1.89;-32.32;163.91;0.0;1005.78;39.052;30.281076;-97.70932;478.77;532.4035811898309;;0.0;34.580647;;15 / 20;4467;2018-02-21 20:30:03:316
0.8562;0.5521;-5.2118;-2.2976;5.2447;-7.9655;-3.2435;4.4171;-2.9843;-0.4585;-0.0152;0.203;0.001;11.89;-0.46;38.66;1.89;-32.32;163.91;0.0;1005.78;39.052;30.281076;-97.70932;478.77;532.4035811898309;;0.0;34.580647;;15 / 20;4478;2018-02-21 20:30:03:327
0.8562;0.5521;-5.2118;-2.2976;5.2447;-7.9655;-3.2435;4.4171;-2.9843;-0.4585;-0.0152;0.203;0.001;11.89;-0.46;38.66;1.89;-32.32;163.91;0.0;1005.78;39.052;30.281076;-97.70932;478.77;532.4035811898309;;0.0;34.580647;;15 / 20;4487;2018-02-21 20:30:03:336
0.8562;0.5521;-5.2118;-2.2976;5.2447;-7.9655;-3.2435;4.4171;-2.9843;-0.4585;-0.0152;0.203;0.001;11.89;-0.46;38.66;1.89;-32.32;163.91;0.0;1005.78;39.052;30.281076;-97.70932;478.77;532.4035811898309;;0.0;34.580647;;15 / 20;4498;2018-02-21 20:30:03:347
0.8562;0.5521;-5.2118;-2.2976;5.2447;-7.9655;-3.2435;4.4171;-2.9843;-0.4585;-0.0152;0.203;0.001;11.89;-0.46;38.66;1.89;-32.32;163.91;0.0;1005.78;39.052;30.281076;-97.70932;478.77;532.4035811898309;;0.0;34.580647;;15 / 20;4508;2018-02-21 20:30:03:357
0.8562;0.5521;-5.2118;-2.2976;5.2447;-7.9655;-3.2435;4.4171;-2.9843;-0.4585;-0.0152;0.203;0.001;11.89;-0.46;38.66;1.89;-32.32;163.91;0.0;1005.78;39.052;30.281076;-97.70932;478.77;532.4035811898309;;0.0;34.580647;;15 / 20;4517;2018-02-21 20:30:03:366
0.8562;0.5521;-5.2118;-2.2976;5.2447;-7.9655;1.2329;-5.6904;9.6427;-0.4585;-0.0152;0.203;0.001;11.89;-0.46;38.66;1.89;-32.32;163.91;0.0;1005.78;39.052;30.281076;-97.70932;478.77;532.4035811898309;;0.0;34.580647;;15 / 20;4528;2018-02-21 20:30:03:377
0.8562;0.5521;-5.2118;-2.2976;5.2447;-7.9655;1.2329;-5.6904;9.6427;-0.4585;-0.0152;0.203;0.001;11.89;-0.46;38.66;1.89;-32.32;163.91;0.0;1005.78;39.052;30.281076;-97.70932;478.77;532.4035811898309;;0.0;34.580647;;15 / 20;4537;2018-02-21 20:30:03:386
0.8562;0.5521;-5.2118;-2.2976;5.2447;-7.9655;1.2329;-5.6904;9.6427;-0.4585;-0.0152;0.203;0.001;11.89;-0.46;38.66;1.89;-32.32;163.91;0.0;1005.78;38.727;30.281076;-97.70932;478.77;532.4035811898309;;0.0;34.580647;;15 / 20;4548;2018-02-21 20:30:03:397
0.8562;0.5521;-5.2118;-2.2976;5.2447;-7.9655;1.2329;-5.6904;9.6427;-0.4585;-0.0152;0.203;0.001;11.89;-0.46;38.66;1.89;-32.32;163.91;0.0;1005.78;38.727;30.281076;-97.70932;478.77;532.4035811898309;;0.0;34.580647;;15 / 20;4557;2018-02-21 20:30:03:406
0.8562;0.5521;-5.2118;-0.9988;7.258;-6.5238;1.2329;-5.6904;9.6427;-1.7434;1.0959;0.6554;0.001;11.89;-0.46;38.66;1.89;-32.32;163.91;0.0;1005.78;38.727;30.281076;-97.70932;478.77;532.4035811898309;;0.0;34.580647;;13 / 20;4568;2018-02-21 20:30:03:417
0.8562;0.5521;-5.2118;-0.9988;7.258;-6.5238;1.2329;-5.6904;9.6427;-1.7434;1.0959;0.6554;0.001;8.84;-8.96;34.36;10.72;-47.72;171.3;0.0;1005.78;38.727;30.281076;-97.70932;478.77;532.4035811898309;;0.0;34.580647;;13 / 20;4578;2018-02-21 20:30:03:427
0.8562;0.5521;-5.2118;-0.9988;7.258;-6.5238;1.2329;-5.6904;9.6427;-1.7434;1.0959;0.6554;0.001;8.84;-8.96;34.36;10.72;-47.72;171.3;0.0;1005.78;38.727;30.281076;-97.70932;478.77;532.4035811898309;;0.0;34.580647;;13 / 20;4587;2018-02-21 20:30:03:436
0.8562;0.5521;-5.2118;-0.9988;7.258;-6.5238;1.2329;-5.6904;9.6427;-1.7434;1.0959;0.6554;0.001;8.84;-8.96;34.36;10.72;-47.72;171.3;0.0;1005.78;38.727;30.281076;-97.70932;478.77;532.4035811898309;;0.0;34.580647;;13 / 20;4598;2018-02-21 20:30:03:447
0.8562;0.5521;-5.2118;-0.9988;7.258;-6.5238;1.2329;-5.6904;9.6427;-1.7434;1.0959;0.6554;0.001;8.84;-8.96;34.36;10.72;-47.72;171.3;0.0;1005.78;38.727;30.281076;-97.70932;478.77;532.4035811898309;;0.0;34.580647;;13 / 20;4608;2018-02-21 20:30:03:457
0.8562;0.5521;-5.2118;-0.9988;7.258;-6.5238;1.2329;-5.6904;9.6427;-1.7434;1.0959;0.6554;0.001;8.84;-8.96;34.36;10.72;-47.72;171.3;0.0;1005.78;38.727;30.281076;-97.70932;478.77;532.4035811898309;;0.0;34.580647;;13 / 20;4618;2018-02-21 20:30:03:467
2.3545;14.1623;-7.608;-0.9988;7.258;-6.5238;1.2329;-5.6904;9.6427;-1.7434;1.0959;0.6554;0.001;8.84;-8.96;34.36;10.72;-47.72;171.3;0.0;1005.78;38.727;30.281076;-97.70932;478.77;532.4035811898309;;0.0;34.580647;;13 / 20;4628;2018-02-21 20:30:03:477
2.3545;14.1623;-7.608;-0.9988;7.258;-6.5238;3.9583;-0.4636;-3.1097;-1.7434;1.0959;0.6554;0.001;8.84;-8.96;34.36;10.72;-47.72;171.3;0.0;1005.78;38.727;30.281076;-97.70932;478.77;532.4035811898309;;0.0;34.580647;;13 / 20;4637;2018-02-21 20:30:03:486
2.3545;14.1623;-7.608;-0.9988;7.258;-6.5238;3.9583;-0.4636;-3.1097;-1.7434;1.0959;0.6554;0.001;8.84;-8.96;34.36;10.72;-47.72;171.3;0.0;1005.78;38.727;30.281076;-97.70932;478.77;532.4035811898309;;0.0;34.580647;;13 / 20;4648;2018-02-21 20:30:03:497
2.3545;14.1623;-7.608;-0.9988;7.258;-6.5238;3.9583;-0.4636;-3.1097;-1.7434;1.0959;0.6554;0.001;8.84;-8.96;34.36;10.72;-47.72;171.3;0.0;1005.78;38.727;30.281076;-97.70932;478.77;532.4035811898309;;0.0;34.580647;;13 / 20;4658;2018-02-21 20:30:03:507
2.3545;14.1623;-7.608;-0.9988;7.258;-6.5238;3.9583;-0.4636;-3.1097;-1.7434;1.0959;0.6554;0.001;8.84;-8.96;34.36;10.72;-47.72;171.3;0.0;1005.26;38.727;30.281076;-97.70932;478.77;532.4035811898309;;0.0;34.580647;;13 / 20;4667;2018-02-21 20:30:03:516
2.3545;14.1623;-7.608;-0.9988;7.258;-6.5238;3.9583;-0.4636;-3.1097;-1.7434;1.0959;0.6554;0.001;8.84;-8.96;34.36;10.72;-47.72;171.3;0.0;1005.26;38.727;30.281076;-97.70932;478.77;532.4035811898309;;0.0;34.580647;;13 / 20;4678;2018-02-21 20:30:03:527
2.3545;14.1623;-7.608;-0.6943;8.7227;-4.435;3.9583;-0.4636;-3.1097;-1.7434;1.0959;0.6554;0.001;6.19;-16.81;28.21;9.89;-47.72;171.3;0.0;1005.26;38.727;30.281076;-97.70932;478.77;532.4035811898309;;0.0;34.580647;;13 / 20;4687;2018-02-21 20:30:03:536
2.3545;14.1623;-7.608;-0.6943;8.7227;-4.435;3.9583;-0.4636;-3.1097;-2.366;1.3402;-0.5092;0.001;6.19;-16.81;28.21;9.89;-47.72;171.3;0.0;1005.26;38.727;30.281076;-97.70932;478.77;532.4035811898309;;0.0;34.580647;;13 / 20;4698;2018-02-21 20:30:03:547
2.3545;14.1623;-7.608;-0.6943;8.7227;-4.435;3.9583;-0.4636;-3.1097;-2.366;1.3402;-0.5092;0.001;6.19;-16.81;28.21;9.89;-47.72;171.3;0.0;1005.26;38.727;30.281076;-97.70932;478.77;532.4035811898309;;0.0;34.580647;;13 / 20;4707;2018-02-21 20:30:03:556
2.3545;14.1623;-7.608;-0.6943;8.7227;-4.435;3.9583;-0.4636;-3.1097;-2.366;1.3402;-0.5092;0.001;6.19;-16.81;28.21;9.89;-47.72;171.3;0.0;1005.26;38.727;30.281076;-97.70932;478.77;532.4035811898309;;0.0;34.580647;;13 / 20;4717;2018-02-21 20:30:03:566
2.3545;14.1623;-7.608;-0.6943;8.7227;-4.435;3.9583;-0.4636;-3.1097;-2.366;1.3402;-0.5092;0.001;6.19;-16.81;28.21;9.89;-47.72;171.3;0.0;1005.26;38.727;30.281076;-97.70932;478.77;532.4035811898309;;0.0;34.580647;;13 / 20;4728;2018-02-21 20:30:03:577
2.3545;14.1623;-7.608;-0.6943;8.7227;-4.435;3.9583;-0.4636;-3.1097;-2.366;1.3402;-0.5092;0.001;6.19;-16.81;28.21;9.89;-47.72;171.3;0.0;1005.26;38.727;30.281076;-97.70932;478.77;532.4035811898309;;0.0;34.580647;;13 / 20;4737;2018-02-21 20:30:03:586
2.3545;14.1623;-7.608;-0.6943;8.7227;-4.435;3.9583;-0.4636;-3.1097;-2.366;1.3402;-0.5092;0.001;6.19;-16.81;28.21;9.89;-47.72;171.3;0.0;1005.26;38.727;30.281076;-97.70932;478.77;532.4035811898309;;0.0;34.580647;;13 / 20;4748;2018-02-21 20:30:03:597
-0.2804;9.5096;-2.3296;-0.6943;8.7227;-4.435;-1.6853;0.1157;-0.1737;-2.366;1.3402;-0.5092;0.001;6.19;-16.81;28.21;9.89;-47.72;171.3;0.0;1005.26;38.727;30.281076;-97.70932;478.77;532.4035811898309;;0.0;34.580647;;13 / 20;4758;2018-02-21 20:30:03:607
-0.2804;9.5096;-2.3296;-0.6943;8.7227;-4.435;-1.6853;0.1157;-0.1737;-2.366;1.3402;-0.5092;0.001;6.19;-16.81;28.21;9.89;-47.72;171.3;0.0;1005.26;38.727;30.281076;-97.70932;478.77;532.4035811898309;;0.0;34.580647;;13 / 20;4768;2018-02-21 20:30:03:617
