sep=;
ACCELEROMETER X (m/s²);ACCELEROMETER Y (m/s²);ACCELEROMETER Z (m/s²);GRAVITY X (m/s²);GRAVITY Y (m/s²);GRAVITY Z (m/s²);LINEAR ACCELERATION X (m/s²);LINEAR ACCELERATION Y (m/s²);LINEAR ACCELERATION Z (m/s²);GYROSCOPE X (rad/s);GYROSCOPE Y (rad/s);GYROSCOPE Z (rad/s);LIGHT (lux);MAGNETIC FIELD X (μT);MAGNETIC FIELD Y (μT);MAGNETIC FIELD Z (μT);ORIENTATION Z (azimuth °);ORIENTATION X (pitch °);ORIENTATION Y (roll °);PROXIMITY (i);ATMOSPHERIC PRESSURE (hPa);SOUND LEVEL (dB);LOCATION Latitude : ;LOCATION Longitude : ;LOCATION Altitude ( m);LOCATION Altitude-google ( m);LOCATION Altitude-atmospheric pressure ( m);LOCATION Speed ( Kmh);LOCATION Accuracy ( m);LOCATION ORIENTATION (°);Satellites in range;Time since start in ms ;YYYY-MO-DD HH-MI-SS_SSS
1.0454;4.0859;8.1412;0.5487;3.4491;9.1673;-0.4703;-1.0503;0.2759;-0.099;0.2929;-0.0046;0.281;-7.86;19.89;-37.09;10.27;-20.58;-3.43;2.0;1003.88;31.904;30.280672;-97.70976;497.52;NaN;;2.23;38.038708;89.4;16 / 22;8;2018-02-21 20:28:29:984
1.0454;4.0859;8.1412;0.5487;3.4491;9.1673;0.4794;-0.9683;-2.1064;-0.099;0.2929;-0.0046;0.281;-7.86;19.89;-37.09;10.27;-20.58;-3.43;2.0;1003.88;31.904;30.280672;-97.70976;497.52;NaN;;2.23;38.038708;89.4;16 / 22;17;2018-02-21 20:28:29:993
0.3376;4.6668;10.2065;0.5487;3.4491;9.1673;0.4794;-0.9683;-2.1064;-0.099;0.2929;-0.0046;0.281;-7.86;19.89;-37.09;10.27;-20.58;-3.43;2.0;1003.88;31.904;30.280672;-97.70976;497.52;NaN;;2.23;38.038708;89.4;16 / 22;28;2018-02-21 20:28:30:004
0.3376;4.6668;10.2065;0.5487;3.4491;9.1673;0.4794;-0.9683;-2.1064;-0.099;0.2929;-0.0046;0.281;-7.86;19.89;-37.09;10.27;-20.58;-3.43;2.0;1003.88;31.904;30.280672;-97.70976;497.52;NaN;;2.23;38.038708;89.4;16 / 22;37;2018-02-21 20:28:30:013
0.3376;4.6668;10.2065;0.5487;3.4491;9.1673;0.4794;-0.9683;-2.1064;-0.099;0.2929;-0.0046;0.281;-7.86;19.89;-37.09;10.27;-20.58;-3.43;2.0;1003.88;31.904;30.280672;-97.70976;497.52;NaN;;2.23;38.038708;89.4;16 / 22;48;2018-02-21 20:28:30:024
0.3376;4.6668;10.2065;0.3898;3.2376;9.2521;0.4794;-0.9683;-2.1064;-0.099;0.2929;-0.0046;0.281;-7.86;19.89;-37.09;10.27;-20.58;-3.43;2.0;1003.89;33.465;30.280672;-97.70976;497.52;NaN;;2.23;38.038708;89.4;16 / 22;57;2018-02-21 20:28:30:033
0.3376;4.6668;10.2065;0.3898;3.2376;9.2521;0.4794;-0.9683;-2.1064;-0.099;0.2929;-0.0046;0.281;-7.86;19.89;-37.09;10.27;-20.58;-3.43;2.0;1003.89;33.465;30.280672;-97.70976;497.52;NaN;;2.23;38.038708;89.4;16 / 22;68;2018-02-21 20:28:30:044
0.3376;4.6668;10.2065;0.3898;3.2376;9.2521;0.4794;-0.9683;-2.1064;-0.099;0.2929;-0.0046;0.281;-7.86;19.89;-37.09;10.27;-20.58;-3.43;2.0;1003.89;33.465;30.280672;-97.70976;497.52;NaN;;2.23;38.038708;89.4;16 / 22;77;2018-02-21 20:28:30:053
0.3376;4.6668;10.2065;0.3898;3.2376;9.2521;0.4794;-0.9683;-2.1064;-0.099;0.2929;-0.0046;0.281;-7.86;19.89;-37.09;10.27;-20.58;-3.43;2.0;1003.89;33.465;30.280672;-97.70976;497.52;NaN;;2.23;38.038708;89.4;16 / 22;88;2018-02-21 20:28:30:064
0.3376;4.6668;10.2065;0.3898;3.2376;9.2521;0.4794;-0.9683;-2.1064;-0.099;0.2929;-0.0046;0.281;-7.86;19.89;-37.09;10.27;-20.58;-3.43;2.0;1003.89;33.465;30.280672;-97.70976;497.52;NaN;;2.23;38.038708;89.4;16 / 22;97;2018-02-21 20:28:30:073
0.3376;4.6668;10.2065;0.3898;3.2376;9.2521;0.4794;-0.9683;-2.1064;-0.099;0.2929;-0.0046;0.281;-7.86;19.89;-37.09;10.27;-20.58;-3.43;2.0;1003.89;33.465;30.280672;-97.70976;497.52;NaN;;2.23;38.038708;89.4;16 / 22;108;2018-02-21 20:28:30:084
0.3376;4.6668;10.2065;0.3898;3.2376;9.2521;0.4794;-0.9683;-2.1064;-0.099;0.2929;-0.0046;0.281;-8.46;20.84;-37.04;11.32;-19.27;-2.41;2.0;1003.89;33.465;30.280672;-97.70976;497.52;NaN;;2.23;38.038708;89.4;16 / 22;118;2018-02-21 20:28:30:094
0.3376;4.6668;10.2065;0.3898;3.2376;9.2521;0.4794;-0.9683;-2.1064;0.0806;0.3274;0.228;0.281;-8.46;20.84;-37.04;11.32;-19.27;-2.41;2.0;1003.89;33.465;30.280672;-97.70976;497.52;NaN;;2.23;38.038708;89.4;16 / 22;128;2018-02-21 20:28:30:104
0.3376;4.6668;10.2065;0.3898;3.2376;9.2521;0.5209;0.0735;-0.8318;0.0806;0.3274;0.228;0.281;-8.46;20.84;-37.04;11.32;-19.27;-2.41;2.0;1003.89;33.465;30.280672;-97.70976;497.52;NaN;;2.23;38.038708;89.4;16 / 22;138;2018-02-21 20:28:30:114
0.3376;4.6668;10.2065;0.3898;3.2376;9.2521;0.5209;0.0735;-0.8318;0.0806;0.3274;0.228;0.281;-8.46;20.84;-37.04;11.32;-19.27;-2.41;2.0;1003.89;33.465;30.280672;-97.70976;497.52;NaN;;2.23;38.038708;89.4;16 / 22;148;2018-02-21 20:28:30:124
0.3376;4.6668;10.2065;0.3898;3.2376;9.2521;0.5209;0.0735;-0.8318;0.0806;0.3274;0.228;0.281;-8.46;20.84;-37.04;11.32;-19.27;-2.41;2.0;1003.89;33.465;30.280672;-97.70976;497.52;NaN;;2.23;38.038708;89.4;16 / 22;157;2018-02-21 20:28:30:133
-0.0864;3.517;10.3976;0.3898;3.2376;9.2521;0.5209;0.0735;-0.8318;0.0806;0.3274;0.228;0.281;-8.46;20.84;-37.04;11.32;-19.27;-2.41;2.0;1003.89;33.465;30.280672;-97.70976;497.52;NaN;;2.23;38.038708;89.4;16 / 22;168;2018-02-21 20:28:30:144
-0.0864;3.517;10.3976;0.3898;3.2376;9.2521;0.5209;0.0735;-0.8318;0.0806;0.3274;0.228;0.281;-8.46;20.84;-37.04;11.32;-19.27;-2.41;2.0;1003.89;33.465;30.280672;-97.70976;497.52;NaN;;2.23;38.038708;89.4;16 / 22;177;2018-02-21 20:28:30:153
-0.0864;3.517;10.3976;0.093;3.4621;9.1783;0.5209;0.0735;-0.8318;0.0806;0.3274;0.228;0.281;-8.46;20.84;-37.04;11.32;-19.27;-2.41;2.0;1003.89;33.465;30.280672;-97.70976;497.52;NaN;;2.23;38.038708;89.4;16 / 22;188;2018-02-21 20:28:30:164
-0.0864;3.517;10.3976;0.093;3.4621;9.1783;0.5209;0.0735;-0.8318;0.0806;0.3274;0.228;0.281;-8.46;20.84;-37.04;11.32;-19.27;-2.41;2.0;1003.89;33.465;30.280672;-97.70976;497.52;NaN;;2.23;38.038708;89.4;16 / 22;197;2018-02-21 20:28:30:173
-0.0864;3.517;10.3976;0.093;3.4621;9.1783;0.5209;0.0735;-0.8318;0.0806;0.3274;0.228;0.281;-8.46;20.84;-37.04;11.32;-19.27;-2.41;2.0;1003.89;33.465;30.280672;-97.70976;497.52;NaN;;2.23;38.038708;89.4;16 / 22;208;2018-02-21 20:28:30:184
-0.0864;3.517;10.3976;0.093;3.4621;9.1783;0.5209;0.0735;-0.8318;0.0806;0.3274;0.228;0.281;-8.46;20.84;-37.04;11.32;-19.27;-2.41;2.0;1003.89;33.465;30.280672;-97.70976;497.52;NaN;;2.23;38.038708;89.4;16 / 22;217;2018-02-21 20:28:30:193
-0.0864;3.517;10.3976;0.093;3.4621;9.1783;0.5209;0.0735;-0.8318;0.0806;0.3274;0.228;0.281;-8.46;20.84;-37.04;11.32;-19.27;-2.41;2.0;1003.89;33.465;30.280672;-97.70976;497.52;NaN;;2.23;38.038708;89.4;16 / 22;228;2018-02-21 20:28:30:204
-0.0864;3.517;10.3976;0.093;3.4621;9.1783;0.5209;0.0735;-0.8318;0.0806;0.3274;0.228;0.281;-7.26;20.24;-37.49;11.77;-20.67;-0.58;2.0;1003.89;33.465;30.280672;-97.70976;497.52;NaN;;2.23;38.038708;89.4;16 / 22;237;2018-02-21 20:28:30:213
-0.0864;3.517;10.3976;0.093;3.4621;9.1783;0.6898;0.0402;0.7536;-0.057;0.2453;0.4977;0.281;-7.26;20.24;-37.49;11.77;-20.67;-0.58;2.0;1003.89;33.465;30.280672;-97.70976;497.52;NaN;;2.23;38.038708;89.4;16 / 22;248;2018-02-21 20:28:30:224
-0.0864;3.517;10.3976;0.093;3.4621;9.1783;0.6898;0.0402;0.7536;-0.057;0.2453;0.4977;0.281;-7.26;20.24;-37.49;11.77;-20.67;-0.58;2.0;1003.88;33.465;30.280672;-97.70976;497.52;NaN;;2.23;38.038708;89.4;16 / 22;258;2018-02-21 20:28:30:234
-0.0864;3.517;10.3976;0.093;3.4621;9.1783;0.6898;0.0402;0.7536;-0.057;0.2453;0.4977;0.281;-7.26;20.24;-37.49;11.77;-20.67;-0.58;2.0;1003.88;33.465;30.280672;-97.70976;497.52;NaN;;2.23;38.038708;89.4;16 / 22;268;2018-02-21 20:28:30:244
-0.0864;3.517;10.3976;0.093;3.4621;9.1783;0.6898;0.0402;0.7536;-0.057;0.2453;0.4977;0.281;-7.26;20.24;-37.49;11.77;-20.67;-0.58;2.0;1003.88;33.465;30.280672;-97.70976;497.52;NaN;;2.23;38.038708;89.4;16 / 22;277;2018-02-21 20:28:30:253
-0.0864;3.517;10.3976;0.093;3.4621;9.1783;0.6898;0.0402;0.7536;-0.057;0.2453;0.4977;0.281;-7.26;20.24;-37.49;11.77;-20.67;-0.58;2.0;1003.88;33.465;30.280672;-97.70976;497.52;NaN;;2.23;38.038708;89.4;16 / 22;288;2018-02-21 20:28:30:264
-0.6816;3.3792;8.3168;0.093;3.4621;9.1783;0.6898;0.0402;0.7536;-0.057;0.2453;0.4977;0.281;-7.26;20.24;-37.49;11.77;-20.67;-0.58;2.0;1003.88;33.465;30.280672;-97.70976;497.52;NaN;;2.23;38.038708;89.4;16 / 22;297;2018-02-21 20:28:30:273
-0.6816;3.3792;8.3168;-0.0022;3.4705;9.1756;0.6898;0.0402;0.7536;-0.057;0.2453;0.4977;0.281;-7.26;20.24;-37.49;11.77;-20.67;-0.58;2.0;1003.88;33.465;30.280672;-97.70976;497.52;NaN;;2.23;38.038708;89.4;16 / 22;308;2018-02-21 20:28:30:284
-0.6816;3.3792;8.3168;-0.0022;3.4705;9.1756;0.6898;0.0402;0.7536;-0.057;0.2453;0.4977;0.281;-7.26;20.24;-37.49;11.77;-20.67;-0.58;2.0;1003.88;33.465;30.280672;-97.70976;497.52;NaN;;2.23;38.038708;89.4;16 / 22;318;2018-02-21 20:28:30:294
-0.6816;3.3792;8.3168;-0.0022;3.4705;9.1756;0.6898;0.0402;0.7536;-0.057;0.2453;0.4977;0.281;-7.26;20.24;-37.49;11.77;-20.67;-0.58;2.0;1003.88;33.465;30.280672;-97.70976;497.52;NaN;;2.23;38.038708;89.4;16 / 22;328;2018-02-21 20:28:30:304
-0.6816;3.3792;8.3168;-0.0022;3.4705;9.1756;0.6898;0.0402;0.7536;-0.057;0.2453;0.4977;0.281;-7.26;20.24;-37.49;11.77;-20.67;-0.58;2.0;1003.88;33.465;30.280672;-97.70976;497.52;NaN;;2.23;38.038708;89.4;16 / 22;338;2018-02-21 20:28:30:314
-0.6816;3.3792;8.3168;-0.0022;3.4705;9.1756;0.6898;0.0402;0.7536;-0.057;0.2453;0.4977;0.281;-6.51;20.99;-38.29;11.96;-20.72;0.01;2.0;1003.88;33.465;30.280672;-97.70976;497.52;NaN;;2.23;38.038708;89.4;16 / 22;347;2018-02-21 20:28:30:323
-0.6816;3.3792;8.3168;-0.0022;3.4705;9.1756;0.2132;-0.7696;1.7806;-0.057;0.2453;0.4977;0.281;-6.51;20.99;-38.29;11.96;-20.72;0.01;2.0;1003.88;33.465;30.280672;-97.70976;497.52;NaN;;2.23;38.038708;89.4;16 / 22;358;2018-02-21 20:28:30:334
-0.6816;3.3792;8.3168;-0.0022;3.4705;9.1756;0.2132;-0.7696;1.7806;-0.057;0.2453;0.4977;0.281;-6.51;20.99;-38.29;11.96;-20.72;0.01;2.0;1003.88;33.465;30.280672;-97.70976;497.52;NaN;;2.23;38.038708;89.4;16 / 22;367;2018-02-21 20:28:30:343
-0.6816;3.3792;8.3168;-0.0022;3.4705;9.1756;0.2132;-0.7696;1.7806;0.0471;0.0283;0.3424;0.281;-6.51;20.99;-38.29;11.96;-20.72;0.01;2.0;1003.88;33.465;30.280672;-97.70976;497.52;NaN;;2.23;38.038708;89.4;16 / 22;378;2018-02-21 20:28:30:354
-0.6816;3.3792;8.3168;-0.0022;3.4705;9.1756;0.2132;-0.7696;1.7806;0.0471;0.0283;0.3424;0.281;-6.51;20.99;-38.29;11.96;-20.72;0.01;2.0;1003.88;33.465;30.280672;-97.70976;497.52;NaN;;2.23;38.038708;89.4;16 / 22;387;2018-02-21 20:28:30:363
-0.6816;3.3792;8.3168;-0.0022;3.4705;9.1756;0.2132;-0.7696;1.7806;0.0471;0.0283;0.3424;0.281;-6.51;20.99;-38.29;11.96;-20.72;0.01;2.0;1003.88;31.067;30.280672;-97.70976;497.52;NaN;;2.23;38.038708;89.4;16 / 22;398;2018-02-21 20:28:30:374
-0.6816;3.3792;8.3168;-0.0022;3.4705;9.1756;0.2132;-0.7696;1.7806;0.0471;0.0283;0.3424;0.281;-6.51;20.99;-38.29;11.96;-20.72;0.01;2.0;1003.88;31.067;30.280672;-97.70976;497.52;NaN;;2.23;38.038708;89.4;16 / 22;407;2018-02-21 20:28:30:383
-0.6816;3.3792;8.3168;-0.0022;3.4705;9.1756;0.2132;-0.7696;1.7806;0.0471;0.0283;0.3424;0.281;-6.51;20.99;-38.29;11.96;-20.72;0.01;2.0;1003.88;31.067;30.280672;-97.70976;497.52;NaN;;2.23;38.038708;89.4;16 / 22;418;2018-02-21 20:28:30:394
-0.6816;3.3792;8.3168;-0.0022;3.4705;9.1756;0.2132;-0.7696;1.7806;0.0471;0.0283;0.3424;0.281;-6.51;20.99;-38.29;11.96;-20.72;0.01;2.0;1003.88;31.067;30.280672;-97.70976;497.52;NaN;;2.23;38.038708;89.4;16 / 22;428;2018-02-21 20:28:30:404
-0.2217;4.3069;7.2633;0.2087;3.5364;9.148;0.2132;-0.7696;1.7806;0.0471;0.0283;0.3424;0.281;-6.51;20.99;-38.29;11.96;-20.72;0.01;2.0;1003.88;31.067;30.280672;-97.70976;497.52;NaN;;2.23;38.038708;89.4;16 / 22;438;2018-02-21 20:28:30:414
-0.2217;4.3069;7.2633;0.2087;3.5364;9.148;0.2132;-0.7696;1.7806;0.0471;0.0283;0.3424;0.281;-6.51;20.99;-38.29;11.96;-20.72;0.01;2.0;1003.88;31.067;30.280663;-97.70975;488.74;NaN;;1.84;34.580647;89.4;18 / 22;448;2018-02-21 20:28:30:424
-0.2217;4.3069;7.2633;0.2087;3.5364;9.148;0.2132;-0.7696;1.7806;0.0471;0.0283;0.3424;0.281;-6.51;20.99;-38.29;11.96;-20.72;0.01;2.0;1003.87;31.067;30.280663;-97.70975;488.74;NaN;;1.84;34.580647;89.4;18 / 22;457;2018-02-21 20:28:30:433
-0.2217;4.3069;7.2633;0.2087;3.5364;9.148;0.2132;-0.7696;1.7806;0.0471;0.0283;0.3424;0.281;-6.11;22.24;-37.99;8.52;-21.13;-1.31;2.0;1003.87;31.067;30.280663;-97.70975;488.74;NaN;;1.84;34.580647;89.4;18 / 22;468;2018-02-21 20:28:30:444
-0.2217;4.3069;7.2633;0.2087;3.5364;9.148;0.4409;-0.9525;0.8636;0.0471;0.0283;0.3424;0.281;-6.11;22.24;-37.99;8.52;-21.13;-1.31;2.0;1003.87;31.067;30.280663;-97.70975;488.74;NaN;;1.84;34.580647;89.4;18 / 22;477;2018-02-21 20:28:30:453
-0.2217;4.3069;7.2633;0.2087;3.5364;9.148;0.4409;-0.9525;0.8636;0.0471;0.0283;0.3424;0.281;-6.11;22.24;-37.99;8.52;-21.13;-1.31;2.0;1003.87;31.067;30.280663;-97.70975;488.74;NaN;;1.84;34.580647;89.4;18 / 22;488;2018-02-21 20:28:30:464
-0.2217;4.3069;7.2633;0.2087;3.5364;9.148;0.4409;-0.9525;0.8636;0.0952;-0.5176;0.3491;0.281;-6.11;22.24;-37.99;8.52;-21.13;-1.31;2.0;1003.87;31.067;30.280663;-97.70975;488.74;NaN;;1.84;34.580647;89.4;18 / 22;497;2018-02-21 20:28:30:473
-0.2217;4.3069;7.2633;0.2087;3.5364;9.148;0.4409;-0.9525;0.8636;0.0952;-0.5176;0.3491;0.281;-6.11;22.24;-37.99;8.52;-21.13;-1.31;2.0;1003.87;31.067;30.280663;-97.70975;488.74;NaN;;1.84;34.580647;89.4;18 / 22;508;2018-02-21 20:28:30:484
-0.2217;4.3069;7.2633;0.2087;3.5364;9.148;0.4409;-0.9525;0.8636;0.0952;-0.5176;0.3491;0.281;-6.11;22.24;-37.99;8.52;-21.13;-1.31;2.0;1003.87;31.067;30.280663;-97.70975;488.74;NaN;;1.84;34.580647;89.4;18 / 22;517;2018-02-21 20:28:30:493
-0.2217;4.3069;7.2633;0.2087;3.5364;9.148;0.4409;-0.9525;0.8636;0.0952;-0.5176;0.3491;0.281;-6.11;22.24;-37.99;8.52;-21.13;-1.31;2.0;1003.87;31.067;30.280663;-97.70975;488.74;NaN;;1.84;34.580647;89.4;18 / 22;528;2018-02-21 20:28:30:504
-0.2217;4.3069;7.2633;0.2087;3.5364;9.148;0.4409;-0.9525;0.8636;0.0952;-0.5176;0.3491;0.281;-6.11;22.24;-37.99;8.52;-21.13;-1.31;2.0;1003.87;31.067;30.280663;-97.70975;488.74;NaN;;1.84;34.580647;89.4;18 / 22;537;2018-02-21 20:28:30:513
-0.2217;4.3069;7.2633;0.2087;3.5364;9.148;0.4409;-0.9525;0.8636;0.0952;-0.5176;0.3491;0.281;-6.11;22.24;-37.99;8.52;-21.13;-1.31;2.0;1003.87;31.067;30.280663;-97.70975;488.74;NaN;;1.84;34.580647;89.4;18 / 22;548;2018-02-21 20:28:30:524
-0.2217;4.3069;7.2633;0.6911;3.6243;9.0897;0.4409;-0.9525;0.8636;0.0952;-0.5176;0.3491;0.281;-6.11;22.24;-37.99;8.52;-21.13;-1.31;2.0;1003.87;31.067;30.280663;-97.70975;488.74;NaN;;1.84;34.580647;89.4;18 / 22;558;2018-02-21 20:28:30:534
-0.2217;4.3069;7.2633;0.6911;3.6243;9.0897;0.4409;-0.9525;0.8636;0.0952;-0.5176;0.3491;0.281;-6.11;22.24;-37.99;8.52;-21.13;-1.31;2.0;1003.87;31.067;30.280663;-97.70975;488.74;NaN;;1.84;34.580647;89.4;18 / 22;568;2018-02-21 20:28:30:544
0.8646;4.9578;9.4695;0.6911;3.6243;9.0897;0.4409;-0.9525;0.8636;0.0952;-0.5176;0.3491;0.281;-7.71;22.09;-37.84;8.36;-21.68;-4.35;2.0;1003.87;31.067;30.280663;-97.70975;488.74;NaN;;1.84;34.580647;89.4;18 / 22;578;2018-02-21 20:28:30:554
0.8646;4.9578;9.4695;0.6911;3.6243;9.0897;0.2889;-0.4529;-2.6985;0.0952;-0.5176;0.3491;0.281;-7.71;22.09;-37.84;8.36;-21.68;-4.35;2.0;1003.87;31.067;30.280663;-97.70975;488.74;NaN;;1.84;34.580647;89.4;18 / 22;587;2018-02-21 20:28:30:563
0.8646;4.9578;9.4695;0.6911;3.6243;9.0897;0.2889;-0.4529;-2.6985;0.0952;-0.5176;0.3491;0.281;-7.71;22.09;-37.84;8.36;-21.68;-4.35;2.0;1003.87;31.067;30.280663;-97.70975;488.74;NaN;;1.84;34.580647;89.4;18 / 22;598;2018-02-21 20:28:30:574
0.8646;4.9578;9.4695;0.6911;3.6243;9.0897;0.2889;-0.4529;-2.6985;0.0952;-0.5176;0.3491;0.281;-7.71;22.09;-37.84;8.36;-21.68;-4.35;2.0;1003.87;31.067;30.280663;-97.70975;488.74;NaN;;1.84;34.580647;89.4;18 / 22;607;2018-02-21 20:28:30:583
0.8646;4.9578;9.4695;0.6911;3.6243;9.0897;0.2889;-0.4529;-2.6985;0.0952;-0.5176;0.3491;0.281;-7.71;22.09;-37.84;8.36;-21.68;-4.35;2.0;1003.87;31.067;30.280663;-97.70975;488.74;NaN;;1.84;34.580647;89.4;18 / 22;618;2018-02-21 20:28:30:594
0.8646;4.9578;9.4695;0.6911;3.6243;9.0897;0.2889;-0.4529;-2.6985;-0.4151;-0.2679;0.2796;0.281;-7.71;22.09;-37.84;8.36;-21.68;-4.35;2.0;1003.87;31.067;30.280663;-97.70975;488.74;NaN;;1.84;34.580647;89.4;18 / 22;628;2018-02-21 20:28:30:604
0.8646;4.9578;9.4695;0.6911;3.6243;9.0897;0.2889;-0.4529;-2.6985;-0.4151;-0.2679;0.2796;0.281;-7.71;22.09;-37.84;8.36;-21.68;-4.35;2.0;1003.87;31.067;30.280663;-97.70975;488.74;NaN;;1.84;34.580647;89.4;18 / 22;638;2018-02-21 20:28:30:614
0.8646;4.9578;9.4695;0.6911;3.6243;9.0897;0.2889;-0.4529;-2.6985;-0.4151;-0.2679;0.2796;0.687;-7.71;22.09;-37.84;8.36;-21.68;-4.35;2.0;1003.87;31.067;30.280663;-97.70975;488.74;NaN;;1.84;34.580647;89.4;18 / 22;648;2018-02-21 20:28:30:624
0.8646;4.9578;9.4695;0.6911;3.6243;9.0897;0.2889;-0.4529;-2.6985;-0.4151;-0.2679;0.2796;0.687;-7.71;22.09;-37.84;8.36;-21.68;-4.35;2.0;1003.9;31.067;30.280663;-97.70975;488.74;NaN;;1.84;34.580647;89.4;18 / 22;658;2018-02-21 20:28:30:634
0.8646;4.9578;9.4695;0.6911;3.6243;9.0897;0.2889;-0.4529;-2.6985;-0.4151;-0.2679;0.2796;0.687;-7.71;22.09;-37.84;8.36;-21.68;-4.35;2.0;1003.9;31.067;30.280663;-97.70975;488.74;NaN;;1.84;34.580647;89.4;18 / 22;668;2018-02-21 20:28:30:644
0.8646;4.9578;9.4695;0.6911;3.6243;9.0897;0.2889;-0.4529;-2.6985;-0.4151;-0.2679;0.2796;0.687;-7.71;22.09;-37.84;8.36;-21.68;-4.35;2.0;1003.9;31.067;30.280663;-97.70975;488.74;NaN;;1.84;34.580647;89.4;18 / 22;678;2018-02-21 20:28:30:654
0.8646;4.9578;9.4695;0.9559;3.3721;9.1625;0.2889;-0.4529;-2.6985;-0.4151;-0.2679;0.2796;0.687;-7.71;22.09;-37.84;8.36;-21.68;-4.35;2.0;1003.9;31.067;30.280663;-97.70975;488.74;NaN;;1.84;34.580647;89.4;18 / 22;688;2018-02-21 20:28:30:664
0.8646;4.9578;9.4695;0.9559;3.3721;9.1625;0.2889;-0.4529;-2.6985;-0.4151;-0.2679;0.2796;0.687;-8.21;23.14;-37.14;6.8;-20.11;-5.96;2.0;1003.9;31.067;30.280663;-97.70975;488.74;NaN;;1.84;34.580647;89.4;18 / 22;698;2018-02-21 20:28:30:674
0.8646;4.9578;9.4695;0.9559;3.3721;9.1625;-0.537;0.3631;-0.4733;-0.4151;-0.2679;0.2796;0.687;-8.21;23.14;-37.14;6.8;-20.11;-5.96;2.0;1003.9;22.46;30.280663;-97.70975;488.74;NaN;;1.84;34.580647;89.4;18 / 22;708;2018-02-21 20:28:30:684
1.1904;2.0856;10.8658;0.9559;3.3721;9.1625;-0.537;0.3631;-0.4733;-0.4151;-0.2679;0.2796;0.687;-8.21;23.14;-37.14;6.8;-20.11;-5.96;2.0;1003.9;22.46;30.280663;-97.70975;488.74;NaN;;1.84;34.580647;89.4;18 / 22;717;2018-02-21 20:28:30:693
1.1904;2.0856;10.8658;0.9559;3.3721;9.1625;-0.537;0.3631;-0.4733;-0.4151;-0.2679;0.2796;0.687;-8.21;23.14;-37.14;6.8;-20.11;-5.96;2.0;1003.9;22.46;30.280663;-97.70975;488.74;NaN;;1.84;34.580647;89.4;18 / 22;728;2018-02-21 20:28:30:704
1.1904;2.0856;10.8658;0.9559;3.3721;9.1625;-0.537;0.3631;-0.4733;-0.4151;-0.2679;0.2796;0.687;-8.21;23.14;-37.14;6.8;-20.11;-5.96;2.0;1003.9;22.46;30.280663;-97.70975;488.74;NaN;;1.84;34.580647;89.4;18 / 22;737;2018-02-21 20:28:30:713
1.1904;2.0856;10.8658;0.9559;3.3721;9.1625;-0.537;0.3631;-0.4733;1.3544;-1.1652;-0.6168;0.687;-8.21;23.14;-37.14;6.8;-20.11;-5.96;2.0;1003.9;22.46;30.280663;-97.70975;488.74;NaN;;1.84;34.580647;89.4;18 / 22;748;2018-02-21 20:28:30:724
1.1904;2.0856;10.8658;0.9559;3.3721;9.1625;-0.537;0.3631;-0.4733;1.3544;-1.1652;-0.6168;0.687;-8.21;23.14;-37.14;6.8;-20.11;-5.96;2.0;1003.9;22.46;30.280663;-97.70975;488.74;NaN;;1.84;34.580647;89.4;18 / 22;757;2018-02-21 20:28:30:733
1.1904;2.0856;10.8658;0.9559;3.3721;9.1625;-0.537;0.3631;-0.4733;1.3544;-1.1652;-0.6168;0.687;-8.21;23.14;-37.14;6.8;-20.11;-5.96;2.0;1003.9;22.46;30.280663;-97.70975;488.74;NaN;;1.84;34.580647;89.4;18 / 22;768;2018-02-21 20:28:30:744
1.1904;2.0856;10.8658;0.9559;3.3721;9.1625;-0.537;0.3631;-0.4733;1.3544;-1.1652;-0.6168;0.687;-8.21;23.14;-37.14;6.8;-20.11;-5.96;2.0;1003.9;22.46;30.280663;-97.70975;488.74;NaN;;1.84;34.580647;89.4;18 / 22;778;2018-02-21 20:28:30:754
1.1904;2.0856;10.8658;0.9559;3.3721;9.1625;-0.537;0.3631;-0.4733;1.3544;-1.1652;-0.6168;0.687;-8.21;23.14;-37.14;6.8;-20.11;-5.96;2.0;1003.9;22.46;30.280663;-97.70975;488.74;NaN;;1.84;34.580647;89.4;18 / 22;787;2018-02-21 20:28:30:763
1.1904;2.0856;10.8658;0.9559;3.3721;9.1625;-0.537;0.3631;-0.4733;1.3544;-1.1652;-0.6168;0.687;-8.21;23.14;-37.14;6.8;-20.11;-5.96;2.0;1003.9;22.46;30.280663;-97.70975;488.74;NaN;;1.84;34.580647;89.4;18 / 22;798;2018-02-21 20:28:30:774
1.1904;2.0856;10.8658;1.7157;4.3092;8.6443;-0.537;0.3631;-0.4733;1.3544;-1.1652;-0.6168;0.687;-12.31;18.79;-35.14;8.5;-26.06;-11.23;2.0;1003.9;22.46;30.280663;-97.70975;488.74;NaN;;1.84;34.580647;89.4;18 / 22;808;2018-02-21 20:28:30:784
1.1904;2.0856;10.8658;1.7157;4.3092;8.6443;-1.1187;0.9919;1.0044;1.3544;-1.1652;-0.6168;0.687;-12.31;18.79;-35.14;8.5;-26.06;-11.23;2.0;1003.9;22.46;30.280663;-97.70975;488.74;NaN;;1.84;34.580647;89.4;18 / 22;818;2018-02-21 20:28:30:794
1.1904;2.0856;10.8658;1.7157;4.3092;8.6443;-1.1187;0.9919;1.0044;1.3544;-1.1652;-0.6168;0.687;-12.31;18.79;-35.14;8.5;-26.06;-11.23;2.0;1003.9;22.46;30.280663;-97.70975;488.74;NaN;;1.84;34.580647;89.4;18 / 22;828;2018-02-21 20:28:30:804
1.1904;2.0856;10.8658;1.7157;4.3092;8.6443;-1.1187;0.9919;1.0044;1.3544;-1.1652;-0.6168;0.687;-12.31;18.79;-35.14;8.5;-26.06;-11.23;2.0;1003.9;22.46;30.280663;-97.70975;488.74;NaN;;1.84;34.580647;89.4;18 / 22;837;2018-02-21 20:28:30:813
1.1904;2.0856;10.8658;1.7157;4.3092;8.6443;-1.1187;0.9919;1.0044;1.3544;-1.1652;-0.6168;0.687;-12.31;18.79;-35.14;8.5;-26.06;-11.23;2.0;1003.9;22.46;30.280663;-97.70975;488.74;NaN;;1.84;34.580647;89.4;18 / 22;848;2018-02-21 20:28:30:824
3.0001;3.7177;8.9594;1.7157;4.3092;8.6443;-1.1187;0.9919;1.0044;1.3544;-1.1652;-0.6168;0.687;-12.31;18.79;-35.14;8.5;-26.06;-11.23;2.0;1003.89;22.46;30.280663;-97.70975;488.74;NaN;;1.84;34.580647;89.4;18 / 22;858;2018-02-21 20:28:30:834
3.0001;3.7177;8.9594;1.7157;4.3092;8.6443;-1.1187;0.9919;1.0044;1.3544;-1.1652;-0.6168;0.687;-12.31;18.79;-35.14;8.5;-26.06;-11.23;2.0;1003.89;22.46;30.280663;-97.70975;488.74;NaN;;1.84;34.580647;89.4;18 / 22;868;2018-02-21 20:28:30:844
3.0001;3.7177;8.9594;1.7157;4.3092;8.6443;-1.1187;0.9919;1.0044;-0.1923;0.1851;0.6563;0.687;-12.31;18.79;-35.14;8.5;-26.06;-11.23;2.0;1003.89;22.46;30.280663;-97.70975;488.74;NaN;;1.84;34.580647;89.4;18 / 22;878;2018-02-21 20:28:30:854
3.0001;3.7177;8.9594;1.7157;4.3092;8.6443;-1.1187;0.9919;1.0044;-0.1923;0.1851;0.6563;0.687;-12.31;18.79;-35.14;8.5;-26.06;-11.23;2.0;1003.89;22.46;30.280663;-97.70975;488.74;NaN;;1.84;34.580647;89.4;18 / 22;888;2018-02-21 20:28:30:864
3.0001;3.7177;8.9594;1.7157;4.3092;8.6443;-1.1187;0.9919;1.0044;-0.1923;0.1851;0.6563;0.687;-12.31;18.79;-35.14;8.5;-26.06;-11.23;2.0;1003.89;22.46;30.280663;-97.70975;488.74;NaN;;1.84;34.580647;89.4;18 / 22;897;2018-02-21 20:28:30:873
3.0001;3.7177;8.9594;1.7157;4.3092;8.6443;-1.1187;0.9919;1.0044;-0.1923;0.1851;0.6563;0.687;-12.31;18.79;-35.14;8.5;-26.06;-11.23;2.0;1003.89;22.46;30.280663;-97.70975;488.74;NaN;;1.84;34.580647;89.4;18 / 22;908;2018-02-21 20:28:30:884
3.0001;3.7177;8.9594;1.7157;4.3092;8.6443;-1.1187;0.9919;1.0044;-0.1923;0.1851;0.6563;0.687;-12.31;18.79;-35.14;8.5;-26.06;-11.23;2.0;1003.89;22.46;30.280663;-97.70975;488.74;NaN;;1.84;34.580647;89.4;18 / 22;918;2018-02-21 20:28:30:894
3.0001;3.7177;8.9594;1.9258;4.1161;8.694;-1.1187;0.9919;1.0044;-0.1923;0.1851;0.6563;0.687;-11.56;20.19;-35.74;7.86;-26.06;-11.23;2.0;1003.89;22.46;30.280663;-97.70975;488.74;NaN;;1.84;34.580647;89.4;18 / 22;928;2018-02-21 20:28:30:904
3.0001;3.7177;8.9594;1.9258;4.1161;8.694;0.08;0.2517;1.7309;-0.1923;0.1851;0.6563;0.687;-11.56;20.19;-35.74;7.86;-26.06;-11.23;2.0;1003.89;22.46;30.280663;-97.70975;488.74;NaN;;1.84;34.580647;89.4;18 / 22;938;2018-02-21 20:28:30:914
3.0001;3.7177;8.9594;1.9258;4.1161;8.694;0.08;0.2517;1.7309;-0.1923;0.1851;0.6563;0.687;-11.56;20.19;-35.74;7.86;-26.06;-11.23;2.0;1003.89;22.46;30.280663;-97.70975;488.74;NaN;;1.84;34.580647;89.4;18 / 22;948;2018-02-21 20:28:30:924
3.0001;3.7177;8.9594;1.9258;4.1161;8.694;0.08;0.2517;1.7309;-0.1923;0.1851;0.6563;0.687;-11.56;20.19;-35.74;7.86;-26.06;-11.23;2.0;1003.89;22.46;30.280663;-97.70975;488.74;NaN;;1.84;34.580647;89.4;18 / 22;958;2018-02-21 20:28:30:934
3.0001;3.7177;8.9594;1.9258;4.1161;8.694;0.08;0.2517;1.7309;-0.1923;0.1851;0.6563;0.687;-11.56;20.19;-35.74;7.86;-26.06;-11.23;2.0;1003.89;22.46;30.280663;-97.70975;488.74;NaN;;1.84;34.580647;89.4;18 / 22;968;2018-02-21 20:28:30:944
3.0001;3.7177;8.9594;1.9258;4.1161;8.694;0.08;0.2517;1.7309;-0.1923;0.1851;0.6563;0.687;-11.56;20.19;-35.74;7.86;-26.06;-11.23;2.0;1003.89;22.46;30.280663;-97.70975;488.74;NaN;;1.84;34.580647;89.4;18 / 22;978;2018-02-21 20:28:30:954
3.0001;3.7177;8.9594;1.9258;4.1161;8.694;0.08;0.2517;1.7309;-0.1923;0.1851;0.6563;0.687;-11.56;20.19;-35.74;7.86;-26.06;-11.23;2.0;1003.89;22.46;30.280663;-97.70975;488.74;NaN;;1.84;34.580647;89.4;18 / 22;987;2018-02-21 20:28:30:963
1.7952;3.8282;6.8536;1.9258;4.1161;8.694;0.08;0.2517;1.7309;-0.028;0.4203;0.0764;0.687;-11.56;20.19;-35.74;7.86;-26.06;-11.23;2.0;1003.89;22.46;30.280663;-97.70975;488.74;NaN;;1.84;34.580647;89.4;18 / 22;998;2018-02-21 20:28:30:974
1.7952;3.8282;6.8536;1.9258;4.1161;8.694;0.08;0.2517;1.7309;-0.028;0.4203;0.0764;0.687;-11.56;20.19;-35.74;7.86;-26.06;-11.23;2.0;1003.89;22.46;30.280663;-97.70975;488.74;NaN;;1.84;34.580647;89.4;18 / 22;1007;2018-02-21 20:28:30:983
1.7952;3.8282;6.8536;1.9258;4.1161;8.694;0.08;0.2517;1.7309;-0.028;0.4203;0.0764;0.687;-11.56;20.19;-35.74;7.86;-26.06;-11.23;2.0;1003.89;22.46;30.280663;-97.70975;488.74;NaN;;1.84;34.580647;89.4;18 / 22;1018;2018-02-21 20:28:30:994
1.7952;3.8282;6.8536;1.9258;4.1161;8.694;0.08;0.2517;1.7309;-0.028;0.4203;0.0764;0.687;-11.56;20.19;-35.74;7.86;-26.06;-11.23;2.0;1003.89;22.46;30.280663;-97.70975;488.74;NaN;;1.84;34.580647;89.4;18 / 22;1028;2018-02-21 20:28:31:004
1.7952;3.8282;6.8536;1.9258;4.1161;8.694;0.08;0.2517;1.7309;-0.028;0.4203;0.0764;0.687;-10.11;20.24;-36.24;3.35;-24.81;-12.49;2.0;1003.89;46.626;30.280663;-97.70975;488.74;NaN;;1.84;34.580647;89.4;18 / 22;1038;2018-02-21 20:28:31:014
1.7952;3.8282;6.8536;1.9258;4.1161;8.694;-0.914;-0.3948;1.2995;-0.028;0.4203;0.0764;0.687;-10.11;20.24;-36.24;3.35;-24.81;-12.49;2.0;1003.89;46.626;30.280663;-97.70975;488.74;NaN;;1.84;34.580647;89.4;18 / 22;1047;2018-02-21 20:28:31:023
1.7952;3.8282;6.8536;1.3442;3.7516;8.9641;-0.914;-0.3948;1.2995;-0.028;0.4203;0.0764;0.687;-10.11;20.24;-36.24;3.35;-24.81;-12.49;2.0;1003.87;46.626;30.280663;-97.70975;488.74;NaN;;1.84;34.580647;89.4;18 / 22;1058;2018-02-21 20:28:31:034
1.7952;3.8282;6.8536;1.3442;3.7516;8.9641;-0.914;-0.3948;1.2995;-0.028;0.4203;0.0764;0.687;-10.11;20.24;-36.24;3.35;-24.81;-12.49;2.0;1003.87;46.626;30.280663;-97.70975;488.74;NaN;;1.84;34.580647;89.4;18 / 22;1068;2018-02-21 20:28:31:044
1.7952;3.8282;6.8536;1.3442;3.7516;8.9641;-0.914;-0.3948;1.2995;-0.028;0.4203;0.0764;0.687;-10.11;20.24;-36.24;3.35;-24.81;-12.49;2.0;1003.87;46.626;30.280663;-97.70975;488.74;NaN;;1.84;34.580647;89.4;18 / 22;1078;2018-02-21 20:28:31:054
1.7952;3.8282;6.8536;1.3442;3.7516;8.9641;-0.914;-0.3948;1.2995;-0.028;0.4203;0.0764;0.687;-10.11;20.24;-36.24;3.35;-24.81;-12.49;2.0;1003.87;46.626;30.280663;-97.70975;488.74;NaN;;1.84;34.580647;89.4;18 / 22;1087;2018-02-21 20:28:31:063
1.7952;3.8282;6.8536;1.3442;3.7516;8.9641;-0.914;-0.3948;1.2995;-0.028;0.4203;0.0764;0.687;-10.11;20.24;-36.24;3.35;-24.81;-12.49;2.0;1003.87;46.626;30.280663;-97.70975;488.74;NaN;;1.84;34.580647;89.4;18 / 22;1098;2018-02-21 20:28:31:074
1.7952;3.8282;6.8536;1.3442;3.7516;8.9641;-0.914;-0.3948;1.2995;-0.028;0.4203;0.0764;0.687;-10.11;20.24;-36.24;3.35;-24.81;-12.49;2.0;1003.87;46.626;30.280663;-97.70975;488.74;NaN;;1.84;34.580647;89.4;18 / 22;1108;2018-02-21 20:28:31:084
1.7952;3.8282;6.8536;1.3442;3.7516;8.9641;-0.914;-0.3948;1.2995;-0.028;0.4203;0.0764;0.687;-10.11;20.24;-36.24;3.35;-24.81;-12.49;2.0;1003.87;46.626;30.280663;-97.70975;488.74;NaN;;1.84;34.580647;89.4;18 / 22;1117;2018-02-21 20:28:31:093
1.7952;3.8282;6.8536;1.3442;3.7516;8.9641;-0.914;-0.3948;1.2995;-0.6081;0.8693;0.2088;0.687;-10.11;20.24;-36.24;3.35;-24.81;-12.49;2.0;1003.87;46.626;30.280663;-97.70975;488.74;NaN;;1.84;34.580647;89.4;18 / 22;1128;2018-02-21 20:28:31:104
1.8096;4.3971;8.1078;1.3442;3.7516;8.9641;-0.914;-0.3948;1.2995;-0.6081;0.8693;0.2088;0.687;-10.11;20.24;-36.24;3.35;-24.81;-12.49;2.0;1003.87;46.626;30.280663;-97.70975;488.74;NaN;;1.84;34.580647;89.4;18 / 22;1138;2018-02-21 20:28:31:114
1.8096;4.3971;8.1078;1.3442;3.7516;8.9641;-0.914;-0.3948;1.2995;-0.6081;0.8693;0.2088;0.687;-10.11;20.24;-36.24;3.35;-24.81;-12.49;2.0;1003.87;46.626;30.280663;-97.70975;488.74;NaN;;1.84;34.580647;89.4;18 / 22;1147;2018-02-21 20:28:31:123
1.8096;4.3971;8.1078;1.3442;3.7516;8.9641;-0.914;-0.3948;1.2995;-0.6081;0.8693;0.2088;0.687;-7.36;23.64;-36.94;2.25;-22.48;-8.53;2.0;1003.87;46.626;30.280663;-97.70975;488.74;NaN;;1.84;34.580647;89.4;18 / 22;1158;2018-02-21 20:28:31:134
1.8096;4.3971;8.1078;1.3442;3.7516;8.9641;-0.0991;-1.1431;-2.2803;-0.6081;0.8693;0.2088;0.687;-7.36;23.64;-36.94;2.25;-22.48;-8.53;2.0;1003.87;46.626;30.280663;-97.70975;488.74;NaN;;1.84;34.580647;89.4;18 / 22;1168;2018-02-21 20:28:31:144
1.8096;4.3971;8.1078;1.3442;3.7516;8.9641;-0.0991;-1.1431;-2.2803;-0.6081;0.8693;0.2088;0.687;-7.36;23.64;-36.94;2.25;-22.48;-8.53;2.0;1003.87;46.626;30.280663;-97.70975;488.74;NaN;;1.84;34.580647;89.4;18 / 22;1177;2018-02-21 20:28:31:153
1.8096;4.3971;8.1078;0.7271;3.1373;9.2663;-0.0991;-1.1431;-2.2803;-0.6081;0.8693;0.2088;0.687;-7.36;23.64;-36.94;2.25;-22.48;-8.53;2.0;1003.87;46.626;30.280663;-97.70975;488.74;NaN;;1.84;34.580647;89.4;18 / 22;1188;2018-02-21 20:28:31:164
1.8096;4.3971;8.1078;0.7271;3.1373;9.2663;-0.0991;-1.1431;-2.2803;-0.6081;0.8693;0.2088;0.687;-7.36;23.64;-36.94;2.25;-22.48;-8.53;2.0;1003.87;46.626;30.280663;-97.70975;488.74;NaN;;1.84;34.580647;89.4;18 / 22;1198;2018-02-21 20:28:31:174
1.8096;4.3971;8.1078;0.7271;3.1373;9.2663;-0.0991;-1.1431;-2.2803;-0.6081;0.8693;0.2088;0.687;-7.36;23.64;-36.94;2.25;-22.48;-8.53;2.0;1003.87;46.626;30.280663;-97.70975;488.74;NaN;;1.84;34.580647;89.4;18 / 22;1208;2018-02-21 20:28:31:184
1.8096;4.3971;8.1078;0.7271;3.1373;9.2663;-0.0991;-1.1431;-2.2803;-0.6081;0.8693;0.2088;0.687;-7.36;23.64;-36.94;2.25;-22.48;-8.53;2.0;1003.87;46.626;30.280663;-97.70975;488.74;NaN;;1.84;34.580647;89.4;18 / 22;1218;2018-02-21 20:28:31:194
1.8096;4.3971;8.1078;0.7271;3.1373;9.2663;-0.0991;-1.1431;-2.2803;-0.6081;0.8693;0.2088;0.687;-7.36;23.64;-36.94;2.25;-22.48;-8.53;2.0;1003.87;46.626;30.280663;-97.70975;488.74;NaN;;1.84;34.580647;89.4;18 / 22;1228;2018-02-21 20:28:31:204
1.8096;4.3971;8.1078;0.7271;3.1373;9.2663;-0.0991;-1.1431;-2.2803;-0.6081;0.8693;0.2088;0.687;-7.36;23.64;-36.94;2.25;-22.48;-8.53;2.0;1003.87;46.626;30.280663;-97.70975;488.74;NaN;;1.84;34.580647;89.4;18 / 22;1238;2018-02-21 20:28:31:214
1.8096;4.3971;8.1078;0.7271;3.1373;9.2663;-0.0991;-1.1431;-2.2803;-0.3072;0.4836;0.2625;0.687;-7.36;23.64;-36.94;2.25;-22.48;-8.53;2.0;1003.87;46.626;30.280663;-97.70975;488.74;NaN;;1.84;34.580647;89.4;18 / 22;1247;2018-02-21 20:28:31:223
1.8096;4.3971;8.1078;0.7271;3.1373;9.2663;-0.0991;-1.1431;-2.2803;-0.3072;0.4836;0.2625;0.687;-7.36;23.64;-36.94;2.25;-22.48;-8.53;2.0;1003.89;46.626;30.280663;-97.70975;488.74;NaN;;1.84;34.580647;89.4;18 / 22;1258;2018-02-21 20:28:31:234
1.8096;4.3971;8.1078;0.7271;3.1373;9.2663;-0.0991;-1.1431;-2.2803;-0.3072;0.4836;0.2625;0.687;-5.06;26.09;-38.29;3.12;-18.65;-4.49;2.0;1003.89;46.626;30.280663;-97.70975;488.74;NaN;;1.84;34.580647;89.4;18 / 22;1268;2018-02-21 20:28:31:244
-0.6864;3.7711;11.8907;0.7271;3.1373;9.2663;0.7667;-0.076;-1.354;-0.3072;0.4836;0.2625;0.687;-5.06;26.09;-38.29;3.12;-18.65;-4.49;2.0;1003.89;46.626;30.280663;-97.70975;488.74;NaN;;1.84;34.580647;89.4;18 / 22;1278;2018-02-21 20:28:31:254
-0.6864;3.7711;11.8907;0.7271;3.1373;9.2663;0.7667;-0.076;-1.354;-0.3072;0.4836;0.2625;0.687;-5.06;26.09;-38.29;3.12;-18.65;-4.49;2.0;1003.89;46.626;30.280663;-97.70975;488.74;NaN;;1.84;34.580647;89.4;18 / 22;1288;2018-02-21 20:28:31:264
-0.6864;3.7711;11.8907;0.7271;3.1373;9.2663;0.7667;-0.076;-1.354;-0.3072;0.4836;0.2625;0.687;-5.06;26.09;-38.29;3.12;-18.65;-4.49;2.0;1003.89;46.626;30.280663;-97.70975;488.74;NaN;;1.84;34.580647;89.4;18 / 22;1297;2018-02-21 20:28:31:273
-0.6864;3.7711;11.8907;0.3352;3.3884;9.2001;0.7667;-0.076;-1.354;-0.3072;0.4836;0.2625;0.687;-5.06;26.09;-38.29;3.12;-18.65;-4.49;2.0;1003.89;46.626;30.280663;-97.70975;488.74;NaN;;1.84;34.580647;89.4;18 / 22;1308;2018-02-21 20:28:31:284
-0.6864;3.7711;11.8907;0.3352;3.3884;9.2001;0.7667;-0.076;-1.354;-0.3072;0.4836;0.2625;0.687;-5.06;26.09;-38.29;3.12;-18.65;-4.49;2.0;1003.89;46.626;30.280663;-97.70975;488.74;NaN;;1.84;34.580647;89.4;18 / 22;1317;2018-02-21 20:28:31:293
-0.6864;3.7711;11.8907;0.3352;3.3884;9.2001;0.7667;-0.076;-1.354;-0.3072;0.4836;0.2625;0.687;-5.06;26.09;-38.29;3.12;-18.65;-4.49;2.0;1003.89;46.626;30.280663;-97.70975;488.74;NaN;;1.84;34.580647;89.4;18 / 22;1328;2018-02-21 20:28:31:304
-0.6864;3.7711;11.8907;0.3352;3.3884;9.2001;0.7667;-0.076;-1.354;-0.3072;0.4836;0.2625;0.687;-5.06;26.09;-38.29;3.12;-18.65;-4.49;2.0;1003.89;46.626;30.280663;-97.70975;488.74;NaN;;1.84;34.580647;89.4;18 / 22;1337;2018-02-21 20:28:31:313
-0.6864;3.7711;11.8907;0.3352;3.3884;9.2001;0.7667;-0.076;-1.354;-0.3072;0.4836;0.2625;0.687;-5.06;26.09;-38.29;3.12;-18.65;-4.49;2.0;1003.89;46.626;30.280663;-97.70975;488.74;NaN;;1.84;34.580647;89.4;18 / 22;1348;2018-02-21 20:28:31:324
-0.6864;3.7711;11.8907;0.3352;3.3884;9.2001;0.7667;-0.076;-1.354;-0.3072;0.4836;0.2625;0.687;-5.06;26.09;-38.29;3.12;-18.65;-4.49;2.0;1003.89;37.782;30.280663;-97.70975;488.74;NaN;;1.84;34.580647;89.4;18 / 22;1358;2018-02-21 20:28:31:334
-0.6864;3.7711;11.8907;0.3352;3.3884;9.2001;0.7667;-0.076;-1.354;-0.3072;0.4836;0.2625;0.687;-5.06;26.09;-38.29;3.12;-18.65;-4.49;2.0;1003.89;37.782;30.280663;-97.70975;488.74;NaN;;1.84;34.580647;89.4;18 / 22;1367;2018-02-21 20:28:31:343
-0.6864;3.7711;11.8907;0.3352;3.3884;9.2001;0.7667;-0.076;-1.354;1.3106;0.236;0.0892;1.202;-5.06;26.09;-38.29;3.12;-18.65;-4.49;2.0;1003.89;37.782;30.280663;-97.70975;488.74;NaN;;1.84;34.580647;89.4;18 / 22;1378;2018-02-21 20:28:31:354
-0.6864;3.7711;11.8907;0.3352;3.3884;9.2001;0.7667;-0.076;-1.354;1.3106;0.236;0.0892;1.202;-4.71;21.44;-39.59;6.02;-20.21;-2.09;2.0;1003.89;37.782;30.280663;-97.70975;488.74;NaN;;1.84;34.580647;89.4;18 / 22;1387;2018-02-21 20:28:31:363
-0.6864;3.7711;11.8907;0.3352;3.3884;9.2001;0.3245;0.7732;1.6197;1.3106;0.236;0.0892;1.202;-4.71;21.44;-39.59;6.02;-20.21;-2.09;2.0;1003.89;37.782;30.280663;-97.70975;488.74;NaN;;1.84;34.580647;89.4;18 / 22;1398;2018-02-21 20:28:31:374
-0.6864;3.7711;11.8907;0.3352;3.3884;9.2001;0.3245;0.7732;1.6197;1.3106;0.236;0.0892;1.202;-4.71;21.44;-39.59;6.02;-20.21;-2.09;2.0;1003.89;37.782;30.280663;-97.70975;488.74;NaN;;1.84;34.580647;89.4;18 / 22;1407;2018-02-21 20:28:31:383
-0.6445;2.9919;9.5232;0.3352;3.3884;9.2001;0.3245;0.7732;1.6197;1.3106;0.236;0.0892;1.202;-4.71;21.44;-39.59;6.02;-20.21;-2.09;2.0;1003.89;37.782;30.280663;-97.70975;488.74;NaN;;1.84;34.580647;89.4;18 / 22;1418;2018-02-21 20:28:31:394
-0.6445;2.9919;9.5232;0.714;4.418;8.7297;0.3245;0.7732;1.6197;1.3106;0.236;0.0892;1.202;-4.71;21.44;-39.59;6.02;-20.21;-2.09;2.0;1003.89;37.782;30.280663;-97.70975;488.74;NaN;;1.84;34.580647;89.4;18 / 22;1428;2018-02-21 20:28:31:404
-0.6445;2.9919;9.5232;0.714;4.418;8.7297;0.3245;0.7732;1.6197;1.3106;0.236;0.0892;1.202;-4.71;21.44;-39.59;6.02;-20.21;-2.09;2.0;1003.89;37.782;30.280663;-97.70975;488.74;NaN;;1.84;34.580647;89.4;18 / 22;1438;2018-02-21 20:28:31:414
-0.6445;2.9919;9.5232;0.714;4.418;8.7297;0.3245;0.7732;1.6197;1.3106;0.236;0.0892;1.202;-4.71;21.44;-39.59;6.02;-20.21;-2.09;2.0;1003.89;37.782;30.280657;-97.709724;488.67;NaN;;1.44;34.580647;89.4;18 / 22;1448;2018-02-21 20:28:31:424
-0.6445;2.9919;9.5232;0.714;4.418;8.7297;0.3245;0.7732;1.6197;1.3106;0.236;0.0892;1.202;-4.71;21.44;-39.59;6.02;-20.21;-2.09;2.0;1003.87;37.782;30.280657;-97.709724;488.67;NaN;;1.44;34.580647;89.4;18 / 22;1457;2018-02-21 20:28:31:433
-0.6445;2.9919;9.5232;0.714;4.418;8.7297;0.3245;0.7732;1.6197;1.3106;0.236;0.0892;1.202;-4.71;21.44;-39.59;6.02;-20.21;-2.09;2.0;1003.87;37.782;30.280657;-97.709724;488.67;NaN;;1.44;34.580647;89.4;18 / 22;1468;2018-02-21 20:28:31:444
-0.6445;2.9919;9.5232;0.714;4.418;8.7297;0.3245;0.7732;1.6197;1.3106;0.236;0.0892;1.202;-4.71;21.44;-39.59;6.02;-20.21;-2.09;2.0;1003.87;37.782;30.280657;-97.709724;488.67;NaN;;1.44;34.580647;89.4;18 / 22;1477;2018-02-21 20:28:31:453
-0.6445;2.9919;9.5232;0.714;4.418;8.7297;0.3245;0.7732;1.6197;1.3106;0.236;0.0892;1.202;-4.71;21.44;-39.59;6.02;-20.21;-2.09;2.0;1003.87;37.782;30.280657;-97.709724;488.67;NaN;;1.44;34.580647;89.4;18 / 22;1488;2018-02-21 20:28:31:464
-0.6445;2.9919;9.5232;0.714;4.418;8.7297;0.3245;0.7732;1.6197;0.0883;-0.689;0.493;1.202;-6.76;20.89;-37.14;6.35;-26.77;-4.68;2.0;1003.87;37.782;30.280657;-97.709724;488.67;NaN;;1.44;34.580647;89.4;18 / 22;1497;2018-02-21 20:28:31:473
-0.6445;2.9919;9.5232;0.714;4.418;8.7297;1.1496;1.0367;2.6608;0.0883;-0.689;0.493;1.202;-6.76;20.89;-37.14;6.35;-26.77;-4.68;2.0;1003.87;37.782;30.280657;-97.709724;488.67;NaN;;1.44;34.580647;89.4;18 / 22;1508;2018-02-21 20:28:31:484
-0.6445;2.9919;9.5232;0.714;4.418;8.7297;1.1496;1.0367;2.6608;0.0883;-0.689;0.493;1.202;-6.76;20.89;-37.14;6.35;-26.77;-4.68;2.0;1003.87;37.782;30.280657;-97.709724;488.67;NaN;;1.44;34.580647;89.4;18 / 22;1517;2018-02-21 20:28:31:493
-0.6445;2.9919;9.5232;0.714;4.418;8.7297;1.1496;1.0367;2.6608;0.0883;-0.689;0.493;1.202;-6.76;20.89;-37.14;6.35;-26.77;-4.68;2.0;1003.87;37.782;30.280657;-97.709724;488.67;NaN;;1.44;34.580647;89.4;18 / 22;1528;2018-02-21 20:28:31:504
-0.6445;2.9919;9.5232;0.714;4.418;8.7297;1.1496;1.0367;2.6608;0.0883;-0.689;0.493;1.202;-6.76;20.89;-37.14;6.35;-26.77;-4.68;2.0;1003.87;37.782;30.280657;-97.709724;488.67;NaN;;1.44;34.580647;89.4;18 / 22;1537;2018-02-21 20:28:31:513
-0.6445;2.9919;9.5232;0.714;4.418;8.7297;1.1496;1.0367;2.6608;0.0883;-0.689;0.493;1.202;-6.76;20.89;-37.14;6.35;-26.77;-4.68;2.0;1003.87;37.782;30.280657;-97.709724;488.67;NaN;;1.44;34.580647;89.4;18 / 22;1548;2018-02-21 20:28:31:524
-0.1007;2.8589;5.8741;1.7923;4.5863;8.4847;1.1496;1.0367;2.6608;0.0883;-0.689;0.493;1.202;-6.76;20.89;-37.14;6.35;-26.77;-4.68;2.0;1003.87;37.782;30.280657;-97.709724;488.67;NaN;;1.44;34.580647;89.4;18 / 22;1557;2018-02-21 20:28:31:533
-0.1007;2.8589;5.8741;1.7923;4.5863;8.4847;1.1496;1.0367;2.6608;0.0883;-0.689;0.493;1.202;-6.76;20.89;-37.14;6.35;-26.77;-4.68;2.0;1003.87;37.782;30.280657;-97.709724;488.67;NaN;;1.44;34.580647;89.4;18 / 22;1568;2018-02-21 20:28:31:544
-0.1007;2.8589;5.8741;1.7923;4.5863;8.4847;1.1496;1.0367;2.6608;0.0883;-0.689;0.493;1.202;-6.76;20.89;-37.14;6.35;-26.77;-4.68;2.0;1003.87;37.782;30.280657;-97.709724;488.67;NaN;;1.44;34.580647;89.4;18 / 22;1577;2018-02-21 20:28:31:553
-0.1007;2.8589;5.8741;1.7923;4.5863;8.4847;1.1496;1.0367;2.6608;0.0883;-0.689;0.493;1.202;-6.76;20.89;-37.14;6.35;-26.77;-4.68;2.0;1003.87;37.782;30.280657;-97.709724;488.67;NaN;;1.44;34.580647;89.4;18 / 22;1588;2018-02-21 20:28:31:564
-0.1007;2.8589;5.8741;1.7923;4.5863;8.4847;1.1496;1.0367;2.6608;0.0883;-0.689;0.493;1.202;-6.76;20.89;-37.14;6.35;-26.77;-4.68;2.0;1003.87;37.782;30.280657;-97.709724;488.67;NaN;;1.44;34.580647;89.4;18 / 22;1597;2018-02-21 20:28:31:573
-0.1007;2.8589;5.8741;1.7923;4.5863;8.4847;1.1496;1.0367;2.6608;0.0883;-0.689;0.493;1.202;-6.76;20.89;-37.14;6.35;-26.77;-4.68;2.0;1003.87;37.782;30.280657;-97.709724;488.67;NaN;;1.44;34.580647;89.4;18 / 22;1608;2018-02-21 20:28:31:584
-0.1007;2.8589;5.8741;1.7923;4.5863;8.4847;1.1496;1.0367;2.6608;0.4806;-0.514;-0.062;1.202;-10.21;19.49;-36.79;3.53;-27.87;-11.93;2.0;1003.87;37.782;30.280657;-97.709724;488.67;NaN;;1.44;34.580647;89.4;18 / 22;1617;2018-02-21 20:28:31:593
-0.1007;2.8589;5.8741;1.7923;4.5863;8.4847;-1.6179;0.6177;-0.5743;0.4806;-0.514;-0.062;1.202;-10.21;19.49;-36.79;3.53;-27.87;-11.93;2.0;1003.87;37.782;30.280657;-97.709724;488.67;NaN;;1.44;34.580647;89.4;18 / 22;1628;2018-02-21 20:28:31:604
-0.1007;2.8589;5.8741;1.7923;4.5863;8.4847;-1.6179;0.6177;-0.5743;0.4806;-0.514;-0.062;1.202;-10.21;19.49;-36.79;3.53;-27.87;-11.93;2.0;1003.87;37.782;30.280657;-97.709724;488.67;NaN;;1.44;34.580647;89.4;18 / 22;1637;2018-02-21 20:28:31:613
-0.1007;2.8589;5.8741;1.7923;4.5863;8.4847;-1.6179;0.6177;-0.5743;0.4806;-0.514;-0.062;1.202;-10.21;19.49;-36.79;3.53;-27.87;-11.93;2.0;1003.87;37.782;30.280657;-97.709724;488.67;NaN;;1.44;34.580647;89.4;18 / 22;1648;2018-02-21 20:28:31:624
-0.1007;2.8589;5.8741;1.7923;4.5863;8.4847;-1.6179;0.6177;-0.5743;0.4806;-0.514;-0.062;1.202;-10.21;19.49;-36.79;3.53;-27.87;-11.93;2.0;1003.84;37.782;30.280657;-97.709724;488.67;NaN;;1.44;34.580647;89.4;18 / 22;1657;2018-02-21 20:28:31:633
-0.1007;2.8589;5.8741;1.7923;4.5863;8.4847;-1.6179;0.6177;-0.5743;0.4806;-0.514;-0.062;1.202;-10.21;19.49;-36.79;3.53;-27.87;-11.93;2.0;1003.84;37.782;30.280657;-97.709724;488.67;NaN;;1.44;34.580647;89.4;18 / 22;1668;2018-02-21 20:28:31:644
-0.1007;2.8589;5.8741;1.9409;4.7396;8.3669;-1.6179;0.6177;-0.5743;0.4806;-0.514;-0.062;1.202;-10.21;19.49;-36.79;3.53;-27.87;-11.93;2.0;1003.84;37.782;30.280657;-97.709724;488.67;NaN;;1.44;34.580647;89.4;18 / 22;1678;2018-02-21 20:28:31:654
-0.1007;2.8589;5.8741;1.9409;4.7396;8.3669;-1.6179;0.6177;-0.5743;0.4806;-0.514;-0.062;1.202;-10.21;19.49;-36.79;3.53;-27.87;-11.93;2.0;1003.84;27.54;30.280657;-97.709724;488.67;NaN;;1.44;34.580647;89.4;18 / 22;1687;2018-02-21 20:28:31:663
2.9713;7.5283;7.3684;1.9409;4.7396;8.3669;-1.6179;0.6177;-0.5743;0.4806;-0.514;-0.062;1.202;-10.21;19.49;-36.79;3.53;-27.87;-11.93;2.0;1003.84;27.54;30.280657;-97.709724;488.67;NaN;;1.44;34.580647;89.4;18 / 22;1698;2018-02-21 20:28:31:674
2.9713;7.5283;7.3684;1.9409;4.7396;8.3669;-1.6179;0.6177;-0.5743;0.4806;-0.514;-0.062;1.202;-10.21;19.49;-36.79;3.53;-27.87;-11.93;2.0;1003.84;27.54;30.280657;-97.709724;488.67;NaN;;1.44;34.580647;89.4;18 / 22;1707;2018-02-21 20:28:31:683
2.9713;7.5283;7.3684;1.9409;4.7396;8.3669;-1.6179;0.6177;-0.5743;0.4806;-0.514;-0.062;1.202;-10.21;19.49;-36.79;3.53;-27.87;-11.93;2.0;1003.84;27.54;30.280657;-97.709724;488.67;NaN;;1.44;34.580647;89.4;18 / 22;1718;2018-02-21 20:28:31:694
2.9713;7.5283;7.3684;1.9409;4.7396;8.3669;-1.6179;0.6177;-0.5743;0.4806;-0.514;-0.062;1.202;-9.01;18.99;-35.34;1.44;-28.89;-13.06;2.0;1003.84;27.54;30.280657;-97.709724;488.67;NaN;;1.44;34.580647;89.4;18 / 22;1728;2018-02-21 20:28:31:704
2.9713;7.5283;7.3684;1.9409;4.7396;8.3669;-0.8311;-2.6242;-2.3719;0.4806;-0.514;-0.062;1.202;-9.01;18.99;-35.34;1.44;-28.89;-13.06;2.0;1003.84;27.54;30.280657;-97.709724;488.67;NaN;;1.44;34.580647;89.4;18 / 22;1738;2018-02-21 20:28:31:714
2.9713;7.5283;7.3684;1.9409;4.7396;8.3669;-0.8311;-2.6242;-2.3719;0.0058;0.3656;-0.3907;1.202;-9.01;18.99;-35.34;1.44;-28.89;-13.06;2.0;1003.84;27.54;30.280657;-97.709724;488.67;NaN;;1.44;34.580647;89.4;18 / 22;1748;2018-02-21 20:28:31:724
2.9713;7.5283;7.3684;1.9409;4.7396;8.3669;-0.8311;-2.6242;-2.3719;0.0058;0.3656;-0.3907;1.202;-9.01;18.99;-35.34;1.44;-28.89;-13.06;2.0;1003.84;27.54;30.280657;-97.709724;488.67;NaN;;1.44;34.580647;89.4;18 / 22;1757;2018-02-21 20:28:31:733
2.9713;7.5283;7.3684;1.9409;4.7396;8.3669;-0.8311;-2.6242;-2.3719;0.0058;0.3656;-0.3907;1.202;-9.01;18.99;-35.34;1.44;-28.89;-13.06;2.0;1003.84;27.54;30.280657;-97.709724;488.67;NaN;;1.44;34.580647;89.4;18 / 22;1768;2018-02-21 20:28:31:744
2.9713;7.5283;7.3684;1.9409;4.7396;8.3669;-0.8311;-2.6242;-2.3719;0.0058;0.3656;-0.3907;1.202;-9.01;18.99;-35.34;1.44;-28.89;-13.06;2.0;1003.84;27.54;30.280657;-97.709724;488.67;NaN;;1.44;34.580647;89.4;18 / 22;1777;2018-02-21 20:28:31:753
2.9713;7.5283;7.3684;1.9409;4.7396;8.3669;-0.8311;-2.6242;-2.3719;0.0058;0.3656;-0.3907;1.202;-9.01;18.99;-35.34;1.44;-28.89;-13.06;2.0;1003.84;27.54;30.280657;-97.709724;488.67;NaN;;1.44;34.580647;89.4;18 / 22;1788;2018-02-21 20:28:31:764
2.9713;7.5283;7.3684;1.9409;4.7396;8.3669;-0.8311;-2.6242;-2.3719;0.0058;0.3656;-0.3907;1.202;-9.01;18.99;-35.34;1.44;-28.89;-13.06;2.0;1003.84;27.54;30.280657;-97.709724;488.67;NaN;;1.44;34.580647;89.4;18 / 22;1798;2018-02-21 20:28:31:774
2.9713;7.5283;7.3684;1.1894;4.8243;8.4586;-0.8311;-2.6242;-2.3719;0.0058;0.3656;-0.3907;1.202;-9.01;18.99;-35.34;1.44;-28.89;-13.06;2.0;1003.84;27.54;30.280657;-97.709724;488.67;NaN;;1.44;34.580647;89.4;18 / 22;1808;2018-02-21 20:28:31:784
2.9713;7.5283;7.3684;1.1894;4.8243;8.4586;-0.8311;-2.6242;-2.3719;0.0058;0.3656;-0.3907;1.202;-9.01;18.99;-35.34;1.44;-28.89;-13.06;2.0;1003.84;27.54;30.280657;-97.709724;488.67;NaN;;1.44;34.580647;89.4;18 / 22;1818;2018-02-21 20:28:31:794
2.9713;7.5283;7.3684;1.1894;4.8243;8.4586;-0.8311;-2.6242;-2.3719;0.0058;0.3656;-0.3907;1.202;-9.01;18.99;-35.34;1.44;-28.89;-13.06;2.0;1003.84;27.54;30.280657;-97.709724;488.67;NaN;;1.44;34.580647;89.4;18 / 22;1828;2018-02-21 20:28:31:804
2.0922;6.6279;10.8049;1.1894;4.8243;8.4586;-0.8311;-2.6242;-2.3719;0.0058;0.3656;-0.3907;1.202;-9.01;18.99;-35.34;1.44;-28.89;-13.06;2.0;1003.84;27.54;30.280657;-97.709724;488.67;NaN;;1.44;34.580647;89.4;18 / 22;1837;2018-02-21 20:28:31:813
2.0922;6.6279;10.8049;1.1894;4.8243;8.4586;-0.8311;-2.6242;-2.3719;0.0058;0.3656;-0.3907;1.202;-6.16;18.59;-37.29;1.29;-29.46;-8.0;2.0;1003.84;27.54;30.280657;-97.709724;488.67;NaN;;1.44;34.580647;89.4;18 / 22;1848;2018-02-21 20:28:31:824
2.0922;6.6279;10.8049;1.1894;4.8243;8.4586;0.4691;-0.2753;-2.1149;0.0058;0.3656;-0.3907;1.202;-6.16;18.59;-37.29;1.29;-29.46;-8.0;2.0;1003.84;27.54;30.280657;-97.709724;488.67;NaN;;1.44;34.580647;89.4;18 / 22;1857;2018-02-21 20:28:31:833
2.0922;6.6279;10.8049;1.1894;4.8243;8.4586;0.4691;-0.2753;-2.1149;0.3434;1.332;-0.3373;1.202;-6.16;18.59;-37.29;1.29;-29.46;-8.0;2.0;1003.84;27.54;30.280657;-97.709724;488.67;NaN;;1.44;34.580647;89.4;18 / 22;1868;2018-02-21 20:28:31:844
2.0922;6.6279;10.8049;1.1894;4.8243;8.4586;0.4691;-0.2753;-2.1149;0.3434;1.332;-0.3373;1.202;-6.16;18.59;-37.29;1.29;-29.46;-8.0;2.0;1003.84;27.54;30.280657;-97.709724;488.67;NaN;;1.44;34.580647;89.4;18 / 22;1877;2018-02-21 20:28:31:853
2.0922;6.6279;10.8049;1.1894;4.8243;8.4586;0.4691;-0.2753;-2.1149;0.3434;1.332;-0.3373;1.202;-6.16;18.59;-37.29;1.29;-29.46;-8.0;2.0;1003.84;27.54;30.280657;-97.709724;488.67;NaN;;1.44;34.580647;89.4;18 / 22;1888;2018-02-21 20:28:31:864
2.0922;6.6279;10.8049;1.1894;4.8243;8.4586;0.4691;-0.2753;-2.1149;0.3434;1.332;-0.3373;1.202;-6.16;18.59;-37.29;1.29;-29.46;-8.0;2.0;1003.84;27.54;30.280657;-97.709724;488.67;NaN;;1.44;34.580647;89.4;18 / 22;1897;2018-02-21 20:28:31:873
2.0922;6.6279;10.8049;1.1894;4.8243;8.4586;0.4691;-0.2753;-2.1149;0.3434;1.332;-0.3373;1.202;-6.16;18.59;-37.29;1.29;-29.46;-8.0;2.0;1003.84;27.54;30.280657;-97.709724;488.67;NaN;;1.44;34.580647;89.4;18 / 22;1908;2018-02-21 20:28:31:884
2.0922;6.6279;10.8049;1.1894;4.8243;8.4586;0.4691;-0.2753;-2.1149;0.3434;1.332;-0.3373;1.202;-6.16;18.59;-37.29;1.29;-29.46;-8.0;2.0;1003.84;27.54;30.280657;-97.709724;488.67;NaN;;1.44;34.580647;89.4;18 / 22;1918;2018-02-21 20:28:31:894
2.0922;6.6279;10.8049;-0.3133;5.3124;8.2411;0.4691;-0.2753;-2.1149;0.3434;1.332;-0.3373;1.202;-6.16;18.59;-37.29;1.29;-29.46;-8.0;2.0;1003.84;27.54;30.280657;-97.709724;488.67;NaN;;1.44;34.580647;89.4;18 / 22;1928;2018-02-21 20:28:31:904
2.0922;6.6279;10.8049;-0.3133;5.3124;8.2411;0.4691;-0.2753;-2.1149;0.3434;1.332;-0.3373;1.202;-6.16;18.59;-37.29;1.29;-29.46;-8.0;2.0;1003.84;27.54;30.280657;-97.709724;488.67;NaN;;1.44;34.580647;89.4;18 / 22;1938;2018-02-21 20:28:31:914
2.0922;6.6279;10.8049;-0.3133;5.3124;8.2411;0.4691;-0.2753;-2.1149;0.3434;1.332;-0.3373;1.202;-6.16;18.59;-37.29;1.29;-29.46;-8.0;2.0;1003.84;27.54;30.280657;-97.709724;488.67;NaN;;1.44;34.580647;89.4;18 / 22;1948;2018-02-21 20:28:31:924
2.0922;6.6279;10.8049;-0.3133;5.3124;8.2411;0.4691;-0.2753;-2.1149;0.3434;1.332;-0.3373;1.202;-0.31;15.59;-39.29;2.46;-32.79;2.18;2.0;1003.84;27.54;30.280657;-97.709724;488.67;NaN;;1.44;34.580647;89.4;18 / 22;1958;2018-02-21 20:28:31:934
2.0922;6.6279;10.8049;-0.3133;5.3124;8.2411;-1.5616;1.8027;0.9798;0.3434;1.332;-0.3373;1.202;-0.31;15.59;-39.29;2.46;-32.79;2.18;2.0;1003.84;27.54;30.280657;-97.709724;488.67;NaN;;1.44;34.580647;89.4;18 / 22;1967;2018-02-21 20:28:31:943
0.8215;4.0408;8.33;-0.3133;5.3124;8.2411;-1.5616;1.8027;0.9798;0.3434;1.332;-0.3373;1.202;-0.31;15.59;-39.29;2.46;-32.79;2.18;2.0;1003.84;27.54;30.280657;-97.709724;488.67;NaN;;1.44;34.580647;89.4;18 / 22;1978;2018-02-21 20:28:31:954
0.8215;4.0408;8.33;-0.3133;5.3124;8.2411;-1.5616;1.8027;0.9798;0.3434;1.332;-0.3373;1.202;-0.31;15.59;-39.29;2.46;-32.79;2.18;2.0;1003.84;27.54;30.280657;-97.709724;488.67;NaN;;1.44;34.580647;89.4;18 / 22;1988;2018-02-21 20:28:31:964
0.8215;4.0408;8.33;-0.3133;5.3124;8.2411;-1.5616;1.8027;0.9798;0.462;0.6712;0.4752;1.202;-0.31;15.59;-39.29;2.46;-32.79;2.18;2.0;1003.84;27.54;30.280657;-97.709724;488.67;NaN;;1.44;34.580647;89.4;18 / 22;1998;2018-02-21 20:28:31:974
0.8215;4.0408;8.33;-0.3133;5.3124;8.2411;-1.5616;1.8027;0.9798;0.462;0.6712;0.4752;1.202;-0.31;15.59;-39.29;2.46;-32.79;2.18;2.0;1003.84;27.54;30.280657;-97.709724;488.67;NaN;;1.44;34.580647;89.4;18 / 22;2008;2018-02-21 20:28:31:984
0.8215;4.0408;8.33;-0.3133;5.3124;8.2411;-1.5616;1.8027;0.9798;0.462;0.6712;0.4752;1.202;-0.31;15.59;-39.29;2.46;-32.79;2.18;2.0;1003.84;30.215;30.280657;-97.709724;488.67;NaN;;1.44;34.580647;89.4;18 / 22;2018;2018-02-21 20:28:31:994
0.8215;4.0408;8.33;-0.3133;5.3124;8.2411;-1.5616;1.8027;0.9798;0.462;0.6712;0.4752;1.202;-0.31;15.59;-39.29;2.46;-32.79;2.18;2.0;1003.84;30.215;30.280657;-97.709724;488.67;NaN;;1.44;34.580647;89.4;18 / 22;2028;2018-02-21 20:28:32:004
0.8215;4.0408;8.33;-0.3133;5.3124;8.2411;-1.5616;1.8027;0.9798;0.462;0.6712;0.4752;1.202;-0.31;15.59;-39.29;2.46;-32.79;2.18;2.0;1003.84;30.215;30.280657;-97.709724;488.67;NaN;;1.44;34.580647;89.4;18 / 22;2038;2018-02-21 20:28:32:014
0.8215;4.0408;8.33;-0.3133;5.3124;8.2411;-1.5616;1.8027;0.9798;0.462;0.6712;0.4752;1.202;-0.31;15.59;-39.29;2.46;-32.79;2.18;2.0;1003.84;30.215;30.280657;-97.709724;488.67;NaN;;1.44;34.580647;89.4;18 / 22;2047;2018-02-21 20:28:32:023
0.8215;4.0408;8.33;-0.0645;5.7385;7.9562;-1.5616;1.8027;0.9798;0.462;0.6712;0.4752;1.202;-0.31;15.59;-39.29;2.46;-32.79;2.18;2.0;1003.85;30.215;30.280657;-97.709724;488.67;NaN;;1.44;34.580647;89.4;18 / 22;2058;2018-02-21 20:28:32:034
0.8215;4.0408;8.33;-0.0645;5.7385;7.9562;-1.5616;1.8027;0.9798;0.462;0.6712;0.4752;1.202;-0.31;15.59;-39.29;2.46;-32.79;2.18;2.0;1003.85;30.215;30.280657;-97.709724;488.67;NaN;;1.44;34.580647;89.4;18 / 22;2067;2018-02-21 20:28:32:043
0.8215;4.0408;8.33;-0.0645;5.7385;7.9562;-1.5616;1.8027;0.9798;0.462;0.6712;0.4752;1.202;0.49;15.04;-39.64;0.52;-35.8;0.46;2.0;1003.85;30.215;30.280657;-97.709724;488.67;NaN;;1.44;34.580647;89.4;18 / 22;2078;2018-02-21 20:28:32:054
0.8215;4.0408;8.33;-0.0645;5.7385;7.9562;-0.7954;1.0289;0.9432;0.462;0.6712;0.4752;1.202;0.49;15.04;-39.64;0.52;-35.8;0.46;2.0;1003.85;30.215;30.280657;-97.709724;488.67;NaN;;1.44;34.580647;89.4;18 / 22;2087;2018-02-21 20:28:32:063
0.8215;4.0408;8.33;-0.0645;5.7385;7.9562;-0.7954;1.0289;0.9432;0.462;0.6712;0.4752;1.484;0.49;15.04;-39.64;0.52;-35.8;0.46;2.0;1003.85;30.215;30.280657;-97.709724;488.67;NaN;;1.44;34.580647;89.4;18 / 22;2098;2018-02-21 20:28:32:074
0.8215;4.0408;8.33;-0.0645;5.7385;7.9562;-0.7954;1.0289;0.9432;0.462;0.6712;0.4752;1.484;0.49;15.04;-39.64;0.52;-35.8;0.46;2.0;1003.85;30.215;30.280657;-97.709724;488.67;NaN;;1.44;34.580647;89.4;18 / 22;2108;2018-02-21 20:28:32:084
0.3412;4.4898;6.9241;-0.0645;5.7385;7.9562;-0.7954;1.0289;0.9432;0.2719;-0.7729;0.1938;1.484;0.49;15.04;-39.64;0.52;-35.8;0.46;2.0;1003.85;30.215;30.280657;-97.709724;488.67;NaN;;1.44;34.580647;89.4;18 / 22;2117;2018-02-21 20:28:32:093
0.3412;4.4898;6.9241;-0.0645;5.7385;7.9562;-0.7954;1.0289;0.9432;0.2719;-0.7729;0.1938;1.484;0.49;15.04;-39.64;0.52;-35.8;0.46;2.0;1003.85;30.215;30.280657;-97.709724;488.67;NaN;;1.44;34.580647;89.4;18 / 22;2128;2018-02-21 20:28:32:104
0.3412;4.4898;6.9241;-0.0645;5.7385;7.9562;-0.7954;1.0289;0.9432;0.2719;-0.7729;0.1938;1.484;0.49;15.04;-39.64;0.52;-35.8;0.46;2.0;1003.85;30.215;30.280657;-97.709724;488.67;NaN;;1.44;34.580647;89.4;18 / 22;2137;2018-02-21 20:28:32:113
0.3412;4.4898;6.9241;-0.0645;5.7385;7.9562;-0.7954;1.0289;0.9432;0.2719;-0.7729;0.1938;1.484;0.49;15.04;-39.64;0.52;-35.8;0.46;2.0;1003.85;30.215;30.280657;-97.709724;488.67;NaN;;1.44;34.580647;89.4;18 / 22;2148;2018-02-21 20:28:32:124
0.3412;4.4898;6.9241;-0.0645;5.7385;7.9562;-0.7954;1.0289;0.9432;0.2719;-0.7729;0.1938;1.484;0.49;15.04;-39.64;0.52;-35.8;0.46;2.0;1003.85;30.215;30.280657;-97.709724;488.67;NaN;;1.44;34.580647;89.4;18 / 22;2157;2018-02-21 20:28:32:133
0.3412;4.4898;6.9241;-0.0645;5.7385;7.9562;-0.7954;1.0289;0.9432;0.2719;-0.7729;0.1938;1.484;0.49;15.04;-39.64;0.52;-35.8;0.46;2.0;1003.85;30.215;30.280657;-97.709724;488.67;NaN;;1.44;34.580647;89.4;18 / 22;2168;2018-02-21 20:28:32:144
0.3412;4.4898;6.9241;0.7268;6.1508;7.6076;-0.7954;1.0289;0.9432;0.2719;-0.7729;0.1938;1.484;0.49;15.04;-39.64;0.52;-35.8;0.46;2.0;1003.85;30.215;30.280657;-97.709724;488.67;NaN;;1.44;34.580647;89.4;18 / 22;2177;2018-02-21 20:28:32:153
0.3412;4.4898;6.9241;0.7268;6.1508;7.6076;-0.7954;1.0289;0.9432;0.2719;-0.7729;0.1938;1.484;-3.31;12.79;-38.14;358.94;-38.83;-5.46;2.0;1003.85;30.215;30.280657;-97.709724;488.67;NaN;;1.44;34.580647;89.4;18 / 22;2188;2018-02-21 20:28:32:164
0.3412;4.4898;6.9241;0.7268;6.1508;7.6076;-1.3305;-2.8002;-0.7195;0.2719;-0.7729;0.1938;1.484;-3.31;12.79;-38.14;358.94;-38.83;-5.46;2.0;1003.85;30.215;30.280657;-97.709724;488.67;NaN;;1.44;34.580647;89.4;18 / 22;2197;2018-02-21 20:28:32:173
0.3412;4.4898;6.9241;0.7268;6.1508;7.6076;-1.3305;-2.8002;-0.7195;0.2719;-0.7729;0.1938;1.484;-3.31;12.79;-38.14;358.94;-38.83;-5.46;2.0;1003.85;30.215;30.280657;-97.709724;488.67;NaN;;1.44;34.580647;89.4;18 / 22;2208;2018-02-21 20:28:32:184
0.3412;4.4898;6.9241;0.7268;6.1508;7.6076;-1.3305;-2.8002;-0.7195;0.2719;-0.7729;0.1938;1.484;-3.31;12.79;-38.14;358.94;-38.83;-5.46;2.0;1003.85;30.215;30.280657;-97.709724;488.67;NaN;;1.44;34.580647;89.4;18 / 22;2218;2018-02-21 20:28:32:194
0.3412;4.4898;6.9241;0.7268;6.1508;7.6076;-1.3305;-2.8002;-0.7195;0.2719;-0.7729;0.1938;1.484;-3.31;12.79;-38.14;358.94;-38.83;-5.46;2.0;1003.85;30.215;30.280657;-97.709724;488.67;NaN;;1.44;34.580647;89.4;18 / 22;2228;2018-02-21 20:28:32:204
0.3412;4.4898;6.9241;0.7268;6.1508;7.6076;-1.3305;-2.8002;-0.7195;0.2719;-0.7729;0.1938;1.484;-3.31;12.79;-38.14;358.94;-38.83;-5.46;2.0;1003.85;30.215;30.280657;-97.709724;488.67;NaN;;1.44;34.580647;89.4;18 / 22;2237;2018-02-21 20:28:32:213
0.3412;4.4898;6.9241;0.7268;6.1508;7.6076;-1.3305;-2.8002;-0.7195;0.9268;-0.3781;0.0663;1.484;-3.31;12.79;-38.14;358.94;-38.83;-5.46;2.0;1003.85;30.215;30.280657;-97.709724;488.67;NaN;;1.44;34.580647;89.4;18 / 22;2248;2018-02-21 20:28:32:224
2.0946;9.0522;8.0875;0.7268;6.1508;7.6076;-1.3305;-2.8002;-0.7195;0.9268;-0.3781;0.0663;1.484;-3.31;12.79;-38.14;358.94;-38.83;-5.46;2.0;1003.85;30.215;30.280657;-97.709724;488.67;NaN;;1.44;34.580647;89.4;18 / 22;2257;2018-02-21 20:28:32:233
2.0946;9.0522;8.0875;0.7268;6.1508;7.6076;-1.3305;-2.8002;-0.7195;0.9268;-0.3781;0.0663;1.484;-3.31;12.79;-38.14;358.94;-38.83;-5.46;2.0;1003.85;30.215;30.280657;-97.709724;488.67;NaN;;1.44;34.580647;89.4;18 / 22;2268;2018-02-21 20:28:32:244
2.0946;9.0522;8.0875;0.7268;6.1508;7.6076;-1.3305;-2.8002;-0.7195;0.9268;-0.3781;0.0663;1.484;-3.31;12.79;-38.14;358.94;-38.83;-5.46;2.0;1003.85;30.215;30.280657;-97.709724;488.67;NaN;;1.44;34.580647;89.4;18 / 22;2278;2018-02-21 20:28:32:254
2.0946;9.0522;8.0875;0.7268;6.1508;7.6076;-1.3305;-2.8002;-0.7195;0.9268;-0.3781;0.0663;1.484;-3.31;12.79;-38.14;358.94;-38.83;-5.46;2.0;1003.85;30.215;30.280657;-97.709724;488.67;NaN;;1.44;34.580647;89.4;18 / 22;2287;2018-02-21 20:28:32:263
2.0946;9.0522;8.0875;1.1425;6.9808;6.797;-1.3305;-2.8002;-0.7195;0.9268;-0.3781;0.0663;1.484;-3.31;12.79;-38.14;358.94;-38.83;-5.46;2.0;1003.85;30.215;30.280657;-97.709724;488.67;NaN;;1.44;34.580647;89.4;18 / 22;2298;2018-02-21 20:28:32:274
2.0946;9.0522;8.0875;1.1425;6.9808;6.797;-1.3305;-2.8002;-0.7195;0.9268;-0.3781;0.0663;1.484;-5.41;9.09;-35.94;358.15;-45.36;-9.54;2.0;1003.85;30.215;30.280657;-97.709724;488.67;NaN;;1.44;34.580647;89.4;18 / 22;2307;2018-02-21 20:28:32:283
2.0946;9.0522;8.0875;1.1425;6.9808;6.797;0.7891;-2.1359;-3.5251;0.9268;-0.3781;0.0663;1.484;-5.41;9.09;-35.94;358.15;-45.36;-9.54;2.0;1003.85;30.215;30.280657;-97.709724;488.67;NaN;;1.44;34.580647;89.4;18 / 22;2318;2018-02-21 20:28:32:294
2.0946;9.0522;8.0875;1.1425;6.9808;6.797;0.7891;-2.1359;-3.5251;0.9268;-0.3781;0.0663;1.484;-5.41;9.09;-35.94;358.15;-45.36;-9.54;2.0;1003.85;30.215;30.280657;-97.709724;488.67;NaN;;1.44;34.580647;89.4;18 / 22;2328;2018-02-21 20:28:32:304
2.0946;9.0522;8.0875;1.1425;6.9808;6.797;0.7891;-2.1359;-3.5251;0.9268;-0.3781;0.0663;1.484;-5.41;9.09;-35.94;358.15;-45.36;-9.54;2.0;1003.85;30.215;30.280657;-97.709724;488.67;NaN;;1.44;34.580647;89.4;18 / 22;2337;2018-02-21 20:28:32:313
2.0946;9.0522;8.0875;1.1425;6.9808;6.797;0.7891;-2.1359;-3.5251;0.9268;-0.3781;0.0663;1.484;-5.41;9.09;-35.94;358.15;-45.36;-9.54;2.0;1003.85;41.593;30.280657;-97.709724;488.67;NaN;;1.44;34.580647;89.4;18 / 22;2348;2018-02-21 20:28:32:324
2.0946;9.0522;8.0875;1.1425;6.9808;6.797;0.7891;-2.1359;-3.5251;0.9268;-0.3781;0.0663;1.484;-5.41;9.09;-35.94;358.15;-45.36;-9.54;2.0;1003.85;41.593;30.280657;-97.709724;488.67;NaN;;1.44;34.580647;89.4;18 / 22;2357;2018-02-21 20:28:32:333
2.0946;9.0522;8.0875;1.1425;6.9808;6.797;0.7891;-2.1359;-3.5251;0.3329;-0.2624;0.4392;1.484;-5.41;9.09;-35.94;358.15;-45.36;-9.54;2.0;1003.85;41.593;30.280657;-97.709724;488.67;NaN;;1.44;34.580647;89.4;18 / 22;2368;2018-02-21 20:28:32:344
2.0946;9.0522;8.0875;1.1425;6.9808;6.797;0.7891;-2.1359;-3.5251;0.3329;-0.2624;0.4392;1.484;-5.41;9.09;-35.94;358.15;-45.36;-9.54;2.0;1003.85;41.593;30.280657;-97.709724;488.67;NaN;;1.44;34.580647;89.4;18 / 22;2378;2018-02-21 20:28:32:354
-0.6756;9.0819;9.184;1.1425;6.9808;6.797;0.7891;-2.1359;-3.5251;0.3329;-0.2624;0.4392;1.484;-5.41;9.09;-35.94;358.15;-45.36;-9.54;2.0;1003.85;41.593;30.280657;-97.709724;488.67;NaN;;1.44;34.580647;89.4;18 / 22;2387;2018-02-21 20:28:32:363
-0.6756;9.0819;9.184;1.1425;6.9808;6.797;0.7891;-2.1359;-3.5251;0.3329;-0.2624;0.4392;1.484;-5.41;9.09;-35.94;358.15;-45.36;-9.54;2.0;1003.85;41.593;30.280657;-97.709724;488.67;NaN;;1.44;34.580647;89.4;18 / 22;2398;2018-02-21 20:28:32:374
-0.6756;9.0819;9.184;1.1425;6.9808;6.797;0.7891;-2.1359;-3.5251;0.3329;-0.2624;0.4392;1.484;-5.41;9.09;-35.94;358.15;-45.36;-9.54;2.0;1003.85;41.593;30.280657;-97.709724;488.67;NaN;;1.44;34.580647;89.4;18 / 22;2407;2018-02-21 20:28:32:383
-0.6756;9.0819;9.184;1.1425;6.9808;6.797;0.7891;-2.1359;-3.5251;0.3329;-0.2624;0.4392;1.484;-6.86;7.59;-34.64;2.03;-45.36;-9.54;2.0;1003.85;41.593;30.280657;-97.709724;488.67;NaN;;1.44;34.580647;89.4;18 / 22;2418;2018-02-21 20:28:32:394
-0.6756;9.0819;9.184;1.6646;7.1899;6.463;1.7418;1.1963;1.3609;0.3329;-0.2624;0.4392;1.484;-6.86;7.59;-34.64;2.03;-45.36;-9.54;2.0;1003.85;41.593;30.280657;-97.709724;488.67;NaN;;1.44;34.580647;89.4;18 / 22;2428;2018-02-21 20:28:32:404
-0.6756;9.0819;9.184;1.6646;7.1899;6.463;1.7418;1.1963;1.3609;0.3329;-0.2624;0.4392;1.484;-6.86;7.59;-34.64;2.03;-45.36;-9.54;2.0;1003.85;41.593;30.280657;-97.709724;488.67;NaN;;1.44;34.580647;89.4;18 / 22;2437;2018-02-21 20:28:32:413
-0.6756;9.0819;9.184;1.6646;7.1899;6.463;1.7418;1.1963;1.3609;0.3329;-0.2624;0.4392;1.484;-6.86;7.59;-34.64;2.03;-45.36;-9.54;2.0;1003.85;41.593;30.280651;-97.70972;487.59;NaN;;0.97;31.122583;89.4;18 / 22;2448;2018-02-21 20:28:32:424
-0.6756;9.0819;9.184;1.6646;7.1899;6.463;1.7418;1.1963;1.3609;0.3329;-0.2624;0.4392;1.484;-6.86;7.59;-34.64;2.03;-45.36;-9.54;2.0;1003.85;41.593;30.280651;-97.70972;487.59;NaN;;0.97;31.122583;89.4;18 / 22;2457;2018-02-21 20:28:32:433
-0.6756;9.0819;9.184;1.6646;7.1899;6.463;1.7418;1.1963;1.3609;0.3329;-0.2624;0.4392;1.484;-6.86;7.59;-34.64;2.03;-45.36;-9.54;2.0;1003.85;41.593;30.280651;-97.70972;487.59;NaN;;0.97;31.122583;89.4;18 / 22;2468;2018-02-21 20:28:32:444
-0.6756;9.0819;9.184;1.6646;7.1899;6.463;1.7418;1.1963;1.3609;0.3329;-0.2624;0.4392;1.484;-6.86;7.59;-34.64;2.03;-45.36;-9.54;2.0;1003.85;41.593;30.280651;-97.70972;487.59;NaN;;0.97;31.122583;89.4;18 / 22;2478;2018-02-21 20:28:32:454
-0.6756;9.0819;9.184;1.6646;7.1899;6.463;1.7418;1.1963;1.3609;0.3329;-0.2624;0.4392;1.484;-6.86;7.59;-34.64;2.03;-45.36;-9.54;2.0;1003.85;41.593;30.280651;-97.70972;487.59;NaN;;0.97;31.122583;89.4;18 / 22;2488;2018-02-21 20:28:32:464
-0.6756;9.0819;9.184;1.6646;7.1899;6.463;1.7418;1.1963;1.3609;0.5061;-0.2485;0.1449;1.484;-6.86;7.59;-34.64;2.03;-45.36;-9.54;2.0;1003.85;41.593;30.280651;-97.70972;487.59;NaN;;0.97;31.122583;89.4;18 / 22;2497;2018-02-21 20:28:32:473
-0.6756;9.0819;9.184;1.6646;7.1899;6.463;1.7418;1.1963;1.3609;0.5061;-0.2485;0.1449;1.484;-6.86;7.59;-34.64;2.03;-45.36;-9.54;2.0;1003.85;41.593;30.280651;-97.70972;487.59;NaN;;0.97;31.122583;89.4;18 / 22;2508;2018-02-21 20:28:32:484
-0.6756;9.0819;9.184;1.6646;7.1899;6.463;1.7418;1.1963;1.3609;0.5061;-0.2485;0.1449;1.484;-6.86;7.59;-34.64;2.03;-45.36;-9.54;2.0;1003.85;41.593;30.280651;-97.70972;487.59;NaN;;0.97;31.122583;89.4;18 / 22;2517;2018-02-21 20:28:32:493
0.6227;5.6408;4.5745;1.6646;7.1899;6.463;1.7418;1.1963;1.3609;0.5061;-0.2485;0.1449;1.484;-6.86;7.59;-34.64;2.03;-45.36;-9.54;2.0;1003.85;41.593;30.280651;-97.70972;487.59;NaN;;0.97;31.122583;89.4;18 / 22;2528;2018-02-21 20:28:32:504
0.6227;5.6408;4.5745;1.6646;7.1899;6.463;1.7418;1.1963;1.3609;0.5061;-0.2485;0.1449;1.484;-8.31;6.24;-32.49;359.53;-47.13;-14.44;2.0;1003.85;41.593;30.280651;-97.70972;487.59;NaN;;0.97;31.122583;89.4;18 / 22;2538;2018-02-21 20:28:32:514
0.6227;5.6408;4.5745;1.9466;7.2598;6.3041;0.3096;2.5954;3.3054;0.5061;-0.2485;0.1449;1.484;-8.31;6.24;-32.49;359.53;-47.13;-14.44;2.0;1003.85;41.593;30.280651;-97.70972;487.59;NaN;;0.97;31.122583;89.4;18 / 22;2547;2018-02-21 20:28:32:523
0.6227;5.6408;4.5745;1.9466;7.2598;6.3041;0.3096;2.5954;3.3054;0.5061;-0.2485;0.1449;1.484;-8.31;6.24;-32.49;359.53;-47.13;-14.44;2.0;1003.85;41.593;30.280651;-97.70972;487.59;NaN;;0.97;31.122583;89.4;18 / 22;2558;2018-02-21 20:28:32:534
0.6227;5.6408;4.5745;1.9466;7.2598;6.3041;0.3096;2.5954;3.3054;0.5061;-0.2485;0.1449;1.484;-8.31;6.24;-32.49;359.53;-47.13;-14.44;2.0;1003.85;41.593;30.280651;-97.70972;487.59;NaN;;0.97;31.122583;89.4;18 / 22;2567;2018-02-21 20:28:32:543
0.6227;5.6408;4.5745;1.9466;7.2598;6.3041;0.3096;2.5954;3.3054;0.5061;-0.2485;0.1449;1.484;-8.31;6.24;-32.49;359.53;-47.13;-14.44;2.0;1003.85;41.593;30.280651;-97.70972;487.59;NaN;;0.97;31.122583;89.4;18 / 22;2577;2018-02-21 20:28:32:553
0.6227;5.6408;4.5745;1.9466;7.2598;6.3041;0.3096;2.5954;3.3054;0.5061;-0.2485;0.1449;1.484;-8.31;6.24;-32.49;359.53;-47.13;-14.44;2.0;1003.85;41.593;30.280651;-97.70972;487.59;NaN;;0.97;31.122583;89.4;18 / 22;2588;2018-02-21 20:28:32:564
0.6227;5.6408;4.5745;1.9466;7.2598;6.3041;0.3096;2.5954;3.3054;0.5061;-0.2485;0.1449;1.484;-8.31;6.24;-32.49;359.53;-47.13;-14.44;2.0;1003.85;41.593;30.280651;-97.70972;487.59;NaN;;0.97;31.122583;89.4;18 / 22;2597;2018-02-21 20:28:32:573
0.6227;5.6408;4.5745;1.9466;7.2598;6.3041;0.3096;2.5954;3.3054;0.5061;-0.2485;0.1449;1.484;-8.31;6.24;-32.49;359.53;-47.13;-14.44;2.0;1003.85;41.593;30.280651;-97.70972;487.59;NaN;;0.97;31.122583;89.4;18 / 22;2608;2018-02-21 20:28:32:584
0.6227;5.6408;4.5745;1.9466;7.2598;6.3041;0.3096;2.5954;3.3054;0.5061;-0.2485;0.1449;1.484;-8.31;6.24;-32.49;359.53;-47.13;-14.44;2.0;1003.85;41.593;30.280651;-97.70972;487.59;NaN;;0.97;31.122583;89.4;18 / 22;2617;2018-02-21 20:28:32:593
0.6227;5.6408;4.5745;1.9466;7.2598;6.3041;0.3096;2.5954;3.3054;-0.6268;0.2078;0.0264;1.484;-8.31;6.24;-32.49;359.53;-47.13;-14.44;2.0;1003.85;41.593;30.280651;-97.70972;487.59;NaN;;0.97;31.122583;89.4;18 / 22;2628;2018-02-21 20:28:32:604
0.6227;5.6408;4.5745;1.9466;7.2598;6.3041;0.3096;2.5954;3.3054;-0.6268;0.2078;0.0264;1.484;-8.31;6.24;-32.49;359.53;-47.13;-14.44;2.0;1003.85;41.593;30.280651;-97.70972;487.59;NaN;;0.97;31.122583;89.4;18 / 22;2638;2018-02-21 20:28:32:614
0.6227;5.6408;4.5745;1.9466;7.2598;6.3041;0.3096;2.5954;3.3054;-0.6268;0.2078;0.0264;1.484;-7.41;8.64;-33.99;353.97;-47.74;-17.16;2.0;1003.85;41.593;30.280651;-97.70972;487.59;NaN;;0.97;31.122583;89.4;18 / 22;2648;2018-02-21 20:28:32:624
0.6227;5.6408;4.5745;1.9466;7.2598;6.3041;-1.1404;0.9813;3.249;-0.6268;0.2078;0.0264;1.484;-7.41;8.64;-33.99;353.97;-47.74;-17.16;2.0;1003.82;41.593;30.280651;-97.70972;487.59;NaN;;0.97;31.122583;89.4;18 / 22;2658;2018-02-21 20:28:32:634
2.2479;5.1395;2.8987;1.9466;7.2598;6.3041;-1.1404;0.9813;3.249;-0.6268;0.2078;0.0264;1.484;-7.41;8.64;-33.99;353.97;-47.74;-17.16;2.0;1003.82;41.593;30.280651;-97.70972;487.59;NaN;;0.97;31.122583;89.4;18 / 22;2667;2018-02-21 20:28:32:643
2.2479;5.1395;2.8987;1.5735;6.6868;7.0034;-1.1404;0.9813;3.249;-0.6268;0.2078;0.0264;1.484;-7.41;8.64;-33.99;353.97;-47.74;-17.16;2.0;1003.82;37.217;30.280651;-97.70972;487.59;NaN;;0.97;31.122583;89.4;18 / 22;2678;2018-02-21 20:28:32:654
2.2479;5.1395;2.8987;1.5735;6.6868;7.0034;-1.1404;0.9813;3.249;-0.6268;0.2078;0.0264;1.484;-7.41;8.64;-33.99;353.97;-47.74;-17.16;2.0;1003.82;37.217;30.280651;-97.70972;487.59;NaN;;0.97;31.122583;89.4;18 / 22;2687;2018-02-21 20:28:32:663
2.2479;5.1395;2.8987;1.5735;6.6868;7.0034;-1.1404;0.9813;3.249;-0.6268;0.2078;0.0264;1.484;-7.41;8.64;-33.99;353.97;-47.74;-17.16;2.0;1003.82;37.217;30.280651;-97.70972;487.59;NaN;;0.97;31.122583;89.4;18 / 22;2698;2018-02-21 20:28:32:674
2.2479;5.1395;2.8987;1.5735;6.6868;7.0034;-1.1404;0.9813;3.249;-0.6268;0.2078;0.0264;1.484;-7.41;8.64;-33.99;353.97;-47.74;-17.16;2.0;1003.82;37.217;30.280651;-97.70972;487.59;NaN;;0.97;31.122583;89.4;18 / 22;2707;2018-02-21 20:28:32:683
2.2479;5.1395;2.8987;1.5735;6.6868;7.0034;-1.1404;0.9813;3.249;-0.6268;0.2078;0.0264;1.484;-7.41;8.64;-33.99;353.97;-47.74;-17.16;2.0;1003.82;37.217;30.280651;-97.70972;487.59;NaN;;0.97;31.122583;89.4;18 / 22;2718;2018-02-21 20:28:32:694
2.2479;5.1395;2.8987;1.5735;6.6868;7.0034;-1.1404;0.9813;3.249;-0.6268;0.2078;0.0264;1.484;-7.41;8.64;-33.99;353.97;-47.74;-17.16;2.0;1003.82;37.217;30.280651;-97.70972;487.59;NaN;;0.97;31.122583;89.4;18 / 22;2728;2018-02-21 20:28:32:704
2.2479;5.1395;2.8987;1.5735;6.6868;7.0034;-1.1404;0.9813;3.249;-0.7588;0.8943;-0.6715;1.484;-7.41;8.64;-33.99;353.97;-47.74;-17.16;2.0;1003.82;37.217;30.280651;-97.70972;487.59;NaN;;0.97;31.122583;89.4;18 / 22;2738;2018-02-21 20:28:32:714
2.2479;5.1395;2.8987;1.5735;6.6868;7.0034;-1.1404;0.9813;3.249;-0.7588;0.8943;-0.6715;1.484;-7.41;8.64;-33.99;353.97;-47.74;-17.16;2.0;1003.82;37.217;30.280651;-97.70972;487.59;NaN;;0.97;31.122583;89.4;18 / 22;2748;2018-02-21 20:28:32:724
2.2479;5.1395;2.8987;1.5735;6.6868;7.0034;-1.1404;0.9813;3.249;-0.7588;0.8943;-0.6715;1.484;-7.41;8.64;-33.99;353.97;-47.74;-17.16;2.0;1003.82;37.217;30.280651;-97.70972;487.59;NaN;;0.97;31.122583;89.4;18 / 22;2758;2018-02-21 20:28:32:734
2.2479;5.1395;2.8987;1.5735;6.6868;7.0034;-1.1404;0.9813;3.249;-0.7588;0.8943;-0.6715;1.484;-4.01;11.54;-36.59;352.94;-42.97;-12.66;2.0;1003.82;37.217;30.280651;-97.70972;487.59;NaN;;0.97;31.122583;89.4;18 / 22;2768;2018-02-21 20:28:32:744
2.2479;5.1395;2.8987;1.5735;6.6868;7.0034;1.6829;-1.8344;-2.4391;-0.7588;0.8943;-0.6715;1.484;-4.01;11.54;-36.59;352.94;-42.97;-12.66;2.0;1003.82;37.217;30.280651;-97.70972;487.59;NaN;;0.97;31.122583;89.4;18 / 22;2777;2018-02-21 20:28:32:753
2.2479;5.1395;2.8987;1.5735;6.6868;7.0034;1.6829;-1.8344;-2.4391;-0.7588;0.8943;-0.6715;1.484;-4.01;11.54;-36.59;352.94;-42.97;-12.66;2.0;1003.82;37.217;30.280651;-97.70972;487.59;NaN;;0.97;31.122583;89.4;18 / 22;2788;2018-02-21 20:28:32:764
2.2479;5.1395;2.8987;0.3924;6.0468;7.7148;1.6829;-1.8344;-2.4391;-0.7588;0.8943;-0.6715;1.484;-4.01;11.54;-36.59;352.94;-42.97;-12.66;2.0;1003.82;37.217;30.280651;-97.70972;487.59;NaN;;0.97;31.122583;89.4;18 / 22;2798;2018-02-21 20:28:32:774
-0.6325;7.4843;9.061;0.3924;6.0468;7.7148;1.6829;-1.8344;-2.4391;-0.7588;0.8943;-0.6715;1.484;-4.01;11.54;-36.59;352.94;-42.97;-12.66;2.0;1003.82;37.217;30.280651;-97.70972;487.59;NaN;;0.97;31.122583;89.4;18 / 22;2807;2018-02-21 20:28:32:783
-0.6325;7.4843;9.061;0.3924;6.0468;7.7148;1.6829;-1.8344;-2.4391;-0.7588;0.8943;-0.6715;1.484;-4.01;11.54;-36.59;352.94;-42.97;-12.66;2.0;1003.82;37.217;30.280651;-97.70972;487.59;NaN;;0.97;31.122583;89.4;18 / 22;2818;2018-02-21 20:28:32:794
-0.6325;7.4843;9.061;0.3924;6.0468;7.7148;1.6829;-1.8344;-2.4391;-0.7588;0.8943;-0.6715;1.395;-4.01;11.54;-36.59;352.94;-42.97;-12.66;2.0;1003.82;37.217;30.280651;-97.70972;487.59;NaN;;0.97;31.122583;89.4;18 / 22;2828;2018-02-21 20:28:32:804
-0.6325;7.4843;9.061;0.3924;6.0468;7.7148;1.6829;-1.8344;-2.4391;-0.7588;0.8943;-0.6715;1.395;-4.01;11.54;-36.59;352.94;-42.97;-12.66;2.0;1003.82;37.217;30.280651;-97.70972;487.59;NaN;;0.97;31.122583;89.4;18 / 22;2838;2018-02-21 20:28:32:814
-0.6325;7.4843;9.061;0.3924;6.0468;7.7148;1.6829;-1.8344;-2.4391;-0.7588;0.8943;-0.6715;1.395;-4.01;11.54;-36.59;352.94;-42.97;-12.66;2.0;1003.82;37.217;30.280651;-97.70972;487.59;NaN;;0.97;31.122583;89.4;18 / 22;2848;2018-02-21 20:28:32:824
-0.6325;7.4843;9.061;0.3924;6.0468;7.7148;1.6829;-1.8344;-2.4391;-0.7588;0.8943;-0.6715;1.395;-4.01;11.54;-36.59;352.94;-42.97;-12.66;2.0;1003.85;37.217;30.280651;-97.70972;487.59;NaN;;0.97;31.122583;89.4;18 / 22;2858;2018-02-21 20:28:32:834
-0.6325;7.4843;9.061;0.3924;6.0468;7.7148;1.6829;-1.8344;-2.4391;-1.1049;0.6395;-0.8698;1.395;-4.01;11.54;-36.59;352.94;-42.97;-12.66;2.0;1003.85;37.217;30.280651;-97.70972;487.59;NaN;;0.97;31.122583;89.4;18 / 22;2868;2018-02-21 20:28:32:844
-0.6325;7.4843;9.061;0.3924;6.0468;7.7148;1.6829;-1.8344;-2.4391;-1.1049;0.6395;-0.8698;1.395;-1.46;13.44;-37.74;358.41;-38.05;-2.91;2.0;1003.85;37.217;30.280651;-97.70972;487.59;NaN;;0.97;31.122583;89.4;18 / 22;2877;2018-02-21 20:28:32:853
-0.6325;7.4843;9.061;0.3924;6.0468;7.7148;0.5117;-2.2873;-5.0537;-1.1049;0.6395;-0.8698;1.395;-1.46;13.44;-37.74;358.41;-38.05;-2.91;2.0;1003.85;37.217;30.280651;-97.70972;487.59;NaN;;0.97;31.122583;89.4;18 / 22;2888;2018-02-21 20:28:32:864
-0.6325;7.4843;9.061;0.3924;6.0468;7.7148;0.5117;-2.2873;-5.0537;-1.1049;0.6395;-0.8698;1.395;-1.46;13.44;-37.74;358.41;-38.05;-2.91;2.0;1003.85;37.217;30.280651;-97.70972;487.59;NaN;;0.97;31.122583;89.4;18 / 22;2898;2018-02-21 20:28:32:874
-0.6325;7.4843;9.061;0.3924;6.0468;7.7148;0.5117;-2.2873;-5.0537;-1.1049;0.6395;-0.8698;1.395;-1.46;13.44;-37.74;358.41;-38.05;-2.91;2.0;1003.85;37.217;30.280651;-97.70972;487.59;NaN;;0.97;31.122583;89.4;18 / 22;2908;2018-02-21 20:28:32:884
-0.6325;7.4843;9.061;0.3924;6.0468;7.7148;0.5117;-2.2873;-5.0537;-1.1049;0.6395;-0.8698;1.395;-1.46;13.44;-37.74;358.41;-38.05;-2.91;2.0;1003.85;37.217;30.280651;-97.70972;487.59;NaN;;0.97;31.122583;89.4;18 / 22;2918;2018-02-21 20:28:32:894
-0.6325;7.4843;9.061;-0.3845;5.326;8.2293;0.5117;-2.2873;-5.0537;-1.1049;0.6395;-0.8698;1.395;-1.46;13.44;-37.74;358.41;-38.05;-2.91;2.0;1003.85;37.217;30.280651;-97.70972;487.59;NaN;;0.97;31.122583;89.4;18 / 22;2928;2018-02-21 20:28:32:904
-0.6325;7.4843;9.061;-0.3845;5.326;8.2293;0.5117;-2.2873;-5.0537;-1.1049;0.6395;-0.8698;1.395;-1.46;13.44;-37.74;358.41;-38.05;-2.91;2.0;1003.85;37.217;30.280651;-97.70972;487.59;NaN;;0.97;31.122583;89.4;18 / 22;2937;2018-02-21 20:28:32:913
-0.8888;7.6221;13.1401;-0.3845;5.326;8.2293;0.5117;-2.2873;-5.0537;-1.1049;0.6395;-0.8698;1.395;-1.46;13.44;-37.74;358.41;-38.05;-2.91;2.0;1003.85;37.217;30.280651;-97.70972;487.59;NaN;;0.97;31.122583;89.4;18 / 22;2948;2018-02-21 20:28:32:924
-0.8888;7.6221;13.1401;-0.3845;5.326;8.2293;0.5117;-2.2873;-5.0537;-1.1049;0.6395;-0.8698;1.395;-1.46;13.44;-37.74;358.41;-38.05;-2.91;2.0;1003.85;37.217;30.280651;-97.70972;487.59;NaN;;0.97;31.122583;89.4;18 / 22;2958;2018-02-21 20:28:32:934
-0.8888;7.6221;13.1401;-0.3845;5.326;8.2293;0.5117;-2.2873;-5.0537;-1.1049;0.6395;-0.8698;1.395;-1.46;13.44;-37.74;358.41;-38.05;-2.91;2.0;1003.85;37.217;30.280651;-97.70972;487.59;NaN;;0.97;31.122583;89.4;18 / 22;2967;2018-02-21 20:28:32:943
-0.8888;7.6221;13.1401;-0.3845;5.326;8.2293;0.5117;-2.2873;-5.0537;-1.1049;0.6395;-0.8698;1.395;-1.46;13.44;-37.74;358.41;-38.05;-2.91;2.0;1003.85;32.848;30.280651;-97.70972;487.59;NaN;;0.97;31.122583;89.4;18 / 22;2978;2018-02-21 20:28:32:954
-0.8888;7.6221;13.1401;-0.3845;5.326;8.2293;0.5117;-2.2873;-5.0537;0.4421;0.0383;-0.8426;1.395;-1.46;13.44;-37.74;358.41;-38.05;-2.91;2.0;1003.85;32.848;30.280651;-97.70972;487.59;NaN;;0.97;31.122583;89.4;18 / 22;2988;2018-02-21 20:28:32:964
-0.8888;7.6221;13.1401;-0.3845;5.326;8.2293;0.5117;-2.2873;-5.0537;0.4421;0.0383;-0.8426;1.395;-1.61;13.24;-37.49;6.87;-32.88;2.67;2.0;1003.85;32.848;30.280651;-97.70972;487.59;NaN;;0.97;31.122583;89.4;18 / 22;2998;2018-02-21 20:28:32:974
-0.8888;7.6221;13.1401;-0.3845;5.326;8.2293;-1.6211;0.0828;1.9787;0.4421;0.0383;-0.8426;1.395;-1.61;13.24;-37.49;6.87;-32.88;2.67;2.0;1003.85;32.848;30.280651;-97.70972;487.59;NaN;;0.97;31.122583;89.4;18 / 22;3007;2018-02-21 20:28:32:983
-0.8888;7.6221;13.1401;-0.3845;5.326;8.2293;-1.6211;0.0828;1.9787;0.4421;0.0383;-0.8426;1.395;-1.61;13.24;-37.49;6.87;-32.88;2.67;2.0;1003.85;32.848;30.280651;-97.70972;487.59;NaN;;0.97;31.122583;89.4;18 / 22;3018;2018-02-21 20:28:32:994
-0.8888;7.6221;13.1401;-0.3845;5.326;8.2293;-1.6211;0.0828;1.9787;0.4421;0.0383;-0.8426;1.395;-1.61;13.24;-37.49;6.87;-32.88;2.67;2.0;1003.85;32.848;30.280651;-97.70972;487.59;NaN;;0.97;31.122583;89.4;18 / 22;3027;2018-02-21 20:28:33:003
-0.8888;7.6221;13.1401;-0.3845;5.326;8.2293;-1.6211;0.0828;1.9787;0.4421;0.0383;-0.8426;1.395;-1.61;13.24;-37.49;6.87;-32.88;2.67;2.0;1003.85;32.848;30.280651;-97.70972;487.59;NaN;;0.97;31.122583;89.4;18 / 22;3038;2018-02-21 20:28:33:014
-0.8888;7.6221;13.1401;-1.0007;5.8682;7.7974;-1.6211;0.0828;1.9787;0.4421;0.0383;-0.8426;1.395;-1.61;13.24;-37.49;6.87;-32.88;2.67;2.0;1003.85;32.848;30.280651;-97.70972;487.59;NaN;;0.97;31.122583;89.4;18 / 22;3048;2018-02-21 20:28:33:024
-0.8888;7.6221;13.1401;-1.0007;5.8682;7.7974;-1.6211;0.0828;1.9787;0.4421;0.0383;-0.8426;1.395;-1.61;13.24;-37.49;6.87;-32.88;2.67;2.0;1003.86;32.848;30.280651;-97.70972;487.59;NaN;;0.97;31.122583;89.4;18 / 22;3058;2018-02-21 20:28:33:034
-0.8888;7.6221;13.1401;-1.0007;5.8682;7.7974;-1.6211;0.0828;1.9787;0.4421;0.0383;-0.8426;1.395;-1.61;13.24;-37.49;6.87;-32.88;2.67;2.0;1003.86;32.848;30.280651;-97.70972;487.59;NaN;;0.97;31.122583;89.4;18 / 22;3068;2018-02-21 20:28:33:044
-0.8888;7.6221;13.1401;-1.0007;5.8682;7.7974;-1.6211;0.0828;1.9787;0.4421;0.0383;-0.8426;1.395;-1.61;13.24;-37.49;6.87;-32.88;2.67;2.0;1003.86;32.848;30.280651;-97.70972;487.59;NaN;;0.97;31.122583;89.4;18 / 22;3077;2018-02-21 20:28:33:053
0.5867;5.0136;5.4787;-1.0007;5.8682;7.7974;-1.6211;0.0828;1.9787;0.4421;0.0383;-0.8426;1.395;-1.61;13.24;-37.49;6.87;-32.88;2.67;2.0;1003.86;32.848;30.280651;-97.70972;487.59;NaN;;0.97;31.122583;89.4;18 / 22;3088;2018-02-21 20:28:33:064
0.5867;5.0136;5.4787;-1.0007;5.8682;7.7974;-1.6211;0.0828;1.9787;0.4421;0.0383;-0.8426;1.395;-1.61;13.24;-37.49;6.87;-32.88;2.67;2.0;1003.86;32.848;30.280651;-97.70972;487.59;NaN;;0.97;31.122583;89.4;18 / 22;3098;2018-02-21 20:28:33:074
0.5867;5.0136;5.4787;-1.0007;5.8682;7.7974;-1.6211;0.0828;1.9787;0.4421;0.0383;-0.8426;1.395;1.24;10.04;-36.54;7.05;-36.74;7.31;2.0;1003.86;32.848;30.280651;-97.70972;487.59;NaN;;0.97;31.122583;89.4;18 / 22;3108;2018-02-21 20:28:33:084
0.5867;5.0136;5.4787;-1.0007;5.8682;7.7974;-0.4512;1.3574;1.5582;0.8376;0.242;-0.0762;1.395;1.24;10.04;-36.54;7.05;-36.74;7.31;2.0;1003.86;32.848;30.280651;-97.70972;487.59;NaN;;0.97;31.122583;89.4;18 / 22;3118;2018-02-21 20:28:33:094
0.5867;5.0136;5.4787;-1.0007;5.8682;7.7974;-0.4512;1.3574;1.5582;0.8376;0.242;-0.0762;1.395;1.24;10.04;-36.54;7.05;-36.74;7.31;2.0;1003.86;32.848;30.280651;-97.70972;487.59;NaN;;0.97;31.122583;89.4;18 / 22;3127;2018-02-21 20:28:33:103
0.5867;5.0136;5.4787;-1.0007;5.8682;7.7974;-0.4512;1.3574;1.5582;0.8376;0.242;-0.0762;1.395;1.24;10.04;-36.54;7.05;-36.74;7.31;2.0;1003.86;32.848;30.280651;-97.70972;487.59;NaN;;0.97;31.122583;89.4;18 / 22;3138;2018-02-21 20:28:33:114
0.5867;5.0136;5.4787;-1.0007;5.8682;7.7974;-0.4512;1.3574;1.5582;0.8376;0.242;-0.0762;1.395;1.24;10.04;-36.54;7.05;-36.74;7.31;2.0;1003.86;32.848;30.280651;-97.70972;487.59;NaN;;0.97;31.122583;89.4;18 / 22;3148;2018-02-21 20:28:33:124
0.5867;5.0136;5.4787;-1.0007;5.8682;7.7974;-0.4512;1.3574;1.5582;0.8376;0.242;-0.0762;1.395;1.24;10.04;-36.54;7.05;-36.74;7.31;2.0;1003.86;32.848;30.280651;-97.70972;487.59;NaN;;0.97;31.122583;89.4;18 / 22;3157;2018-02-21 20:28:33:133
0.5867;5.0136;5.4787;-1.0007;5.8682;7.7974;-0.4512;1.3574;1.5582;0.8376;0.242;-0.0762;1.395;1.24;10.04;-36.54;7.05;-36.74;7.31;2.0;1003.86;32.848;30.280651;-97.70972;487.59;NaN;;0.97;31.122583;89.4;18 / 22;3168;2018-02-21 20:28:33:144
0.5867;5.0136;5.4787;-1.2122;6.4864;7.259;-0.4512;1.3574;1.5582;0.8376;0.242;-0.0762;1.395;1.24;10.04;-36.54;7.05;-36.74;7.31;2.0;1003.86;32.848;30.280651;-97.70972;487.59;NaN;;0.97;31.122583;89.4;18 / 22;3178;2018-02-21 20:28:33:154
0.5867;5.0136;5.4787;-1.2122;6.4864;7.259;-0.4512;1.3574;1.5582;0.8376;0.242;-0.0762;1.395;1.24;10.04;-36.54;7.05;-36.74;7.31;2.0;1003.86;32.848;30.280651;-97.70972;487.59;NaN;;0.97;31.122583;89.4;18 / 22;3187;2018-02-21 20:28:33:163
0.5867;5.0136;5.4787;-1.2122;6.4864;7.259;-0.4512;1.3574;1.5582;0.8376;0.242;-0.0762;1.395;1.24;10.04;-36.54;7.05;-36.74;7.31;2.0;1003.86;32.848;30.280651;-97.70972;487.59;NaN;;0.97;31.122583;89.4;18 / 22;3198;2018-02-21 20:28:33:174
0.5867;5.0136;5.4787;-1.2122;6.4864;7.259;-0.4512;1.3574;1.5582;0.8376;0.242;-0.0762;1.395;1.24;10.04;-36.54;7.05;-36.74;7.31;2.0;1003.86;32.848;30.280651;-97.70972;487.59;NaN;;0.97;31.122583;89.4;18 / 22;3208;2018-02-21 20:28:33:184
0.5867;5.0136;5.4787;-1.2122;6.4864;7.259;-0.4512;1.3574;1.5582;0.8376;0.242;-0.0762;1.395;1.24;10.04;-36.54;7.05;-36.74;7.31;2.0;1003.86;32.848;30.280651;-97.70972;487.59;NaN;;0.97;31.122583;89.4;18 / 22;3217;2018-02-21 20:28:33:193
-0.5846;5.2167;6.8882;-1.2122;6.4864;7.259;-0.4512;1.3574;1.5582;0.8376;0.242;-0.0762;1.395;1.34;6.94;-36.39;9.73;-41.39;9.48;2.0;1003.86;32.848;30.280651;-97.70972;487.59;NaN;;0.97;31.122583;89.4;18 / 22;3227;2018-02-21 20:28:33:203
-0.5846;5.2167;6.8882;-1.2122;6.4864;7.259;0.0152;0.2744;-1.6182;0.0778;-0.0043;0.1495;1.395;1.34;6.94;-36.39;9.73;-41.39;9.48;2.0;1003.86;32.848;30.280651;-97.70972;487.59;NaN;;0.97;31.122583;89.4;18 / 22;3238;2018-02-21 20:28:33:214
-0.5846;5.2167;6.8882;-1.2122;6.4864;7.259;0.0152;0.2744;-1.6182;0.0778;-0.0043;0.1495;1.395;1.34;6.94;-36.39;9.73;-41.39;9.48;2.0;1003.86;32.848;30.280651;-97.70972;487.59;NaN;;0.97;31.122583;89.4;18 / 22;3248;2018-02-21 20:28:33:224
-0.5846;5.2167;6.8882;-1.2122;6.4864;7.259;0.0152;0.2744;-1.6182;0.0778;-0.0043;0.1495;1.395;1.34;6.94;-36.39;9.73;-41.39;9.48;2.0;1003.86;32.848;30.280651;-97.70972;487.59;NaN;;0.97;31.122583;89.4;18 / 22;3258;2018-02-21 20:28:33:234
-0.5846;5.2167;6.8882;-1.2122;6.4864;7.259;0.0152;0.2744;-1.6182;0.0778;-0.0043;0.1495;1.395;1.34;6.94;-36.39;9.73;-41.39;9.48;2.0;1003.86;32.848;30.280651;-97.70972;487.59;NaN;;0.97;31.122583;89.4;18 / 22;3268;2018-02-21 20:28:33:244
-0.5846;5.2167;6.8882;-1.2122;6.4864;7.259;0.0152;0.2744;-1.6182;0.0778;-0.0043;0.1495;1.395;1.34;6.94;-36.39;9.73;-41.39;9.48;2.0;1003.86;32.848;30.280651;-97.70972;487.59;NaN;;0.97;31.122583;89.4;18 / 22;3278;2018-02-21 20:28:33:254
-0.5846;5.2167;6.8882;-1.2122;6.4864;7.259;0.0152;0.2744;-1.6182;0.0778;-0.0043;0.1495;1.395;1.34;6.94;-36.39;9.73;-41.39;9.48;2.0;1003.86;32.848;30.280651;-97.70972;487.59;NaN;;0.97;31.122583;89.4;18 / 22;3288;2018-02-21 20:28:33:264
-0.5846;5.2167;6.8882;-1.1399;6.3969;7.3496;0.0152;0.2744;-1.6182;0.0778;-0.0043;0.1495;1.395;1.34;6.94;-36.39;9.73;-41.39;9.48;2.0;1003.86;32.848;30.280651;-97.70972;487.59;NaN;;0.97;31.122583;89.4;18 / 22;3298;2018-02-21 20:28:33:274
-0.5846;5.2167;6.8882;-1.1399;6.3969;7.3496;0.0152;0.2744;-1.6182;0.0778;-0.0043;0.1495;1.395;1.34;6.94;-36.39;9.73;-41.39;9.48;2.0;1003.86;32.848;30.280651;-97.70972;487.59;NaN;;0.97;31.122583;89.4;18 / 22;3307;2018-02-21 20:28:33:283
-0.5846;5.2167;6.8882;-1.1399;6.3969;7.3496;0.0152;0.2744;-1.6182;0.0778;-0.0043;0.1495;1.395;1.34;6.94;-36.39;9.73;-41.39;9.48;2.0;1003.86;25.172;30.280651;-97.70972;487.59;NaN;;0.97;31.122583;89.4;18 / 22;3318;2018-02-21 20:28:33:294
-0.5846;5.2167;6.8882;-1.1399;6.3969;7.3496;0.0152;0.2744;-1.6182;0.0778;-0.0043;0.1495;1.395;1.34;6.94;-36.39;9.73;-41.39;9.48;2.0;1003.86;25.172;30.280651;-97.70972;487.59;NaN;;0.97;31.122583;89.4;18 / 22;3328;2018-02-21 20:28:33:304
-0.5846;5.2167;6.8882;-1.1399;6.3969;7.3496;0.0152;0.2744;-1.6182;0.0778;-0.0043;0.1495;1.395;1.99;8.19;-37.04;7.0;-40.7;8.82;2.0;1003.86;25.172;30.280651;-97.70972;487.59;NaN;;0.97;31.122583;89.4;18 / 22;3338;2018-02-21 20:28:33:314
-0.5846;5.2167;6.8882;-1.1399;6.3969;7.3496;0.8661;-2.912;-4.4155;0.0778;-0.0043;0.1495;1.395;1.99;8.19;-37.04;7.0;-40.7;8.82;2.0;1003.86;25.172;30.280651;-97.70972;487.59;NaN;;0.97;31.122583;89.4;18 / 22;3347;2018-02-21 20:28:33:323
-2.4638;7.944;9.7776;-1.1399;6.3969;7.3496;0.8661;-2.912;-4.4155;0.0778;-0.0043;0.1495;1.395;1.99;8.19;-37.04;7.0;-40.7;8.82;2.0;1003.86;25.172;30.280651;-97.70972;487.59;NaN;;0.97;31.122583;89.4;18 / 22;3358;2018-02-21 20:28:33:334
-2.4638;7.944;9.7776;-1.1399;6.3969;7.3496;0.8661;-2.912;-4.4155;-0.2306;0.0927;-0.2167;1.395;1.99;8.19;-37.04;7.0;-40.7;8.82;2.0;1003.86;25.172;30.280651;-97.70972;487.59;NaN;;0.97;31.122583;89.4;18 / 22;3368;2018-02-21 20:28:33:344
-2.4638;7.944;9.7776;-1.1399;6.3969;7.3496;0.8661;-2.912;-4.4155;-0.2306;0.0927;-0.2167;1.395;1.99;8.19;-37.04;7.0;-40.7;8.82;2.0;1003.86;25.172;30.280651;-97.70972;487.59;NaN;;0.97;31.122583;89.4;18 / 22;3377;2018-02-21 20:28:33:353
-2.4638;7.944;9.7776;-1.1399;6.3969;7.3496;0.8661;-2.912;-4.4155;-0.2306;0.0927;-0.2167;1.395;1.99;8.19;-37.04;7.0;-40.7;8.82;2.0;1003.86;25.172;30.280651;-97.70972;487.59;NaN;;0.97;31.122583;89.4;18 / 22;3388;2018-02-21 20:28:33:364
-2.4638;7.944;9.7776;-1.1399;6.3969;7.3496;0.8661;-2.912;-4.4155;-0.2306;0.0927;-0.2167;1.395;1.99;8.19;-37.04;7.0;-40.7;8.82;2.0;1003.86;25.172;30.280651;-97.70972;487.59;NaN;;0.97;31.122583;89.4;18 / 22;3398;2018-02-21 20:28:33:374
-2.4638;7.944;9.7776;-1.1399;6.3969;7.3496;0.8661;-2.912;-4.4155;-0.2306;0.0927;-0.2167;1.395;1.99;8.19;-37.04;7.0;-40.7;8.82;2.0;1003.86;25.172;30.280651;-97.70972;487.59;NaN;;0.97;31.122583;89.4;18 / 22;3407;2018-02-21 20:28:33:383
-2.4638;7.944;9.7776;-1.1399;6.3969;7.3496;0.8661;-2.912;-4.4155;-0.2306;0.0927;-0.2167;1.395;1.99;8.19;-37.04;7.0;-40.7;8.82;2.0;1003.86;25.172;30.280651;-97.70972;487.59;NaN;;0.97;31.122583;89.4;18 / 22;3418;2018-02-21 20:28:33:394
-2.4638;7.944;9.7776;-1.4904;6.1237;7.5176;0.8661;-2.912;-4.4155;-0.2306;0.0927;-0.2167;1.395;1.99;8.19;-37.04;7.0;-40.7;8.82;2.0;1003.86;25.172;30.280651;-97.70972;487.59;NaN;;0.97;31.122583;89.4;18 / 22;3428;2018-02-21 20:28:33:404
-2.4638;7.944;9.7776;-1.4904;6.1237;7.5176;0.8661;-2.912;-4.4155;-0.2306;0.0927;-0.2167;1.395;1.99;8.19;-37.04;7.0;-40.7;8.82;2.0;1003.86;25.172;30.280651;-97.70972;487.59;NaN;;0.97;31.122583;89.4;18 / 22;3437;2018-02-21 20:28:33:413
-2.4638;7.944;9.7776;-1.4904;6.1237;7.5176;0.8661;-2.912;-4.4155;-0.2306;0.0927;-0.2167;1.395;1.99;8.19;-37.04;7.0;-40.7;8.82;2.0;1003.86;25.172;30.280647;-97.70971;490.75;NaN;;2.52;27.664516;89.5;18 / 22;3448;2018-02-21 20:28:33:424
-2.4638;7.944;9.7776;-1.4904;6.1237;7.5176;0.8661;-2.912;-4.4155;-0.2306;0.0927;-0.2167;1.395;2.94;8.94;-36.99;8.05;-38.63;11.21;2.0;1003.86;25.172;30.280647;-97.70971;490.75;NaN;;2.52;27.664516;89.5;18 / 22;3458;2018-02-21 20:28:33:434
-2.4638;7.944;9.7776;-1.4904;6.1237;7.5176;0.1964;0.6111;0.5916;-0.2306;0.0927;-0.2167;1.395;2.94;8.94;-36.99;8.05;-38.63;11.21;2.0;1003.86;25.172;30.280647;-97.70971;490.75;NaN;;2.52;27.664516;89.5;18 / 22;3468;2018-02-21 20:28:33:444
-2.4638;7.944;9.7776;-1.4904;6.1237;7.5176;0.1964;0.6111;0.5916;-0.2306;0.0927;-0.2167;1.395;2.94;8.94;-36.99;8.05;-38.63;11.21;2.0;1003.86;25.172;30.280647;-97.70971;490.75;NaN;;2.52;27.664516;89.5;18 / 22;3478;2018-02-21 20:28:33:454
-2.556;6.7621;9.2103;-1.4904;6.1237;7.5176;0.1964;0.6111;0.5916;-0.1855;0.7564;-0.3553;1.395;2.94;8.94;-36.99;8.05;-38.63;11.21;2.0;1003.86;25.172;30.280647;-97.70971;490.75;NaN;;2.52;27.664516;89.5;18 / 22;3488;2018-02-21 20:28:33:464
-2.556;6.7621;9.2103;-1.4904;6.1237;7.5176;0.1964;0.6111;0.5916;-0.1855;0.7564;-0.3553;1.395;2.94;8.94;-36.99;8.05;-38.63;11.21;2.0;1003.86;25.172;30.280647;-97.70971;490.75;NaN;;2.52;27.664516;89.5;18 / 22;3498;2018-02-21 20:28:33:474
-2.556;6.7621;9.2103;-1.4904;6.1237;7.5176;0.1964;0.6111;0.5916;-0.1855;0.7564;-0.3553;1.395;2.94;8.94;-36.99;8.05;-38.63;11.21;2.0;1003.86;25.172;30.280647;-97.70971;490.75;NaN;;2.52;27.664516;89.5;18 / 22;3508;2018-02-21 20:28:33:484
-2.556;6.7621;9.2103;-1.4904;6.1237;7.5176;0.1964;0.6111;0.5916;-0.1855;0.7564;-0.3553;1.395;2.94;8.94;-36.99;8.05;-38.63;11.21;2.0;1003.86;25.172;30.280647;-97.70971;490.75;NaN;;2.52;27.664516;89.5;18 / 22;3518;2018-02-21 20:28:33:494
-2.556;6.7621;9.2103;-1.4904;6.1237;7.5176;0.1964;0.6111;0.5916;-0.1855;0.7564;-0.3553;1.395;2.94;8.94;-36.99;8.05;-38.63;11.21;2.0;1003.86;25.172;30.280647;-97.70971;490.75;NaN;;2.52;27.664516;89.5;18 / 22;3528;2018-02-21 20:28:33:504
-2.556;6.7621;9.2103;-1.4904;6.1237;7.5176;0.1964;0.6111;0.5916;-0.1855;0.7564;-0.3553;1.395;2.94;8.94;-36.99;8.05;-38.63;11.21;2.0;1003.86;25.172;30.280647;-97.70971;490.75;NaN;;2.52;27.664516;89.5;18 / 22;3537;2018-02-21 20:28:33:513
-2.556;6.7621;9.2103;-2.1084;5.9469;7.5117;0.1964;0.6111;0.5916;-0.1855;0.7564;-0.3553;2.093;2.94;8.94;-36.99;8.05;-38.63;11.21;2.0;1003.86;25.172;30.280647;-97.70971;490.75;NaN;;2.52;27.664516;89.5;18 / 22;3548;2018-02-21 20:28:33:524
-2.556;6.7621;9.2103;-2.1084;5.9469;7.5117;0.1964;0.6111;0.5916;-0.1855;0.7564;-0.3553;2.093;2.94;8.94;-36.99;8.05;-38.63;11.21;2.0;1003.86;25.172;30.280647;-97.70971;490.75;NaN;;2.52;27.664516;89.5;18 / 22;3558;2018-02-21 20:28:33:534
-2.556;6.7621;9.2103;-2.1084;5.9469;7.5117;0.1964;0.6111;0.5916;-0.1855;0.7564;-0.3553;2.093;5.89;10.14;-37.09;7.87;-37.32;15.68;2.0;1003.86;25.172;30.280647;-97.70971;490.75;NaN;;2.52;27.664516;89.5;18 / 22;3568;2018-02-21 20:28:33:544
-2.556;6.7621;9.2103;-2.1084;5.9469;7.5117;-0.3539;2.0313;3.3312;-0.1855;0.7564;-0.3553;2.093;5.89;10.14;-37.09;7.87;-37.32;15.68;2.0;1003.86;25.172;30.280647;-97.70971;490.75;NaN;;2.52;27.664516;89.5;18 / 22;3578;2018-02-21 20:28:33:554
-2.556;6.7621;9.2103;-2.1084;5.9469;7.5117;-0.3539;2.0313;3.3312;-0.1855;0.7564;-0.3553;2.093;5.89;10.14;-37.09;7.87;-37.32;15.68;2.0;1003.86;25.172;30.280647;-97.70971;490.75;NaN;;2.52;27.664516;89.5;18 / 22;3587;2018-02-21 20:28:33:563
-2.556;6.7621;9.2103;-2.1084;5.9469;7.5117;-0.3539;2.0313;3.3312;-0.1855;0.7564;-0.3553;2.093;5.89;10.14;-37.09;7.87;-37.32;15.68;2.0;1003.86;25.172;30.280647;-97.70971;490.75;NaN;;2.52;27.664516;89.5;18 / 22;3598;2018-02-21 20:28:33:574
-2.556;6.7621;9.2103;-2.1084;5.9469;7.5117;-0.3539;2.0313;3.3312;-0.1855;0.7564;-0.3553;2.093;5.89;10.14;-37.09;7.87;-37.32;15.68;2.0;1003.86;25.172;30.280647;-97.70971;490.75;NaN;;2.52;27.664516;89.5;18 / 22;3607;2018-02-21 20:28:33:583
-2.556;6.7621;9.2103;-2.1084;5.9469;7.5117;-0.3539;2.0313;3.3312;-0.2909;-0.5334;0.5043;2.093;5.89;10.14;-37.09;7.87;-37.32;15.68;2.0;1003.86;25.172;30.280647;-97.70971;490.75;NaN;;2.52;27.664516;89.5;18 / 22;3618;2018-02-21 20:28:33:594
-2.556;6.7621;9.2103;-2.1084;5.9469;7.5117;-0.3539;2.0313;3.3312;-0.2909;-0.5334;0.5043;2.093;5.89;10.14;-37.09;7.87;-37.32;15.68;2.0;1003.86;25.172;30.280647;-97.70971;490.75;NaN;;2.52;27.664516;89.5;18 / 22;3628;2018-02-21 20:28:33:604
-1.2984;3.77;4.2962;-2.1084;5.9469;7.5117;-0.3539;2.0313;3.3312;-0.2909;-0.5334;0.5043;2.093;5.89;10.14;-37.09;7.87;-37.32;15.68;2.0;1003.86;25.172;30.280647;-97.70971;490.75;NaN;;2.52;27.664516;89.5;18 / 22;3638;2018-02-21 20:28:33:614
-1.2984;3.77;4.2962;-2.1084;5.9469;7.5117;-0.3539;2.0313;3.3312;-0.2909;-0.5334;0.5043;2.093;5.89;10.14;-37.09;7.87;-37.32;15.68;2.0;1003.86;21.723;30.280647;-97.70971;490.75;NaN;;2.52;27.664516;89.5;18 / 22;3648;2018-02-21 20:28:33:624
-1.2984;3.77;4.2962;-2.1084;5.9469;7.5117;-0.3539;2.0313;3.3312;-0.2909;-0.5334;0.5043;2.093;5.89;10.14;-37.09;7.87;-37.32;15.68;2.0;1003.86;21.723;30.280647;-97.70971;490.75;NaN;;2.52;27.664516;89.5;18 / 22;3658;2018-02-21 20:28:33:634
-1.2984;3.77;4.2962;-2.1084;5.9469;7.5117;-0.3539;2.0313;3.3312;-0.2909;-0.5334;0.5043;2.093;5.89;10.14;-37.09;7.87;-37.32;15.68;2.0;1003.86;21.723;30.280647;-97.70971;490.75;NaN;;2.52;27.664516;89.5;18 / 22;3668;2018-02-21 20:28:33:644
-1.2984;3.77;4.2962;-1.3856;5.6654;7.888;-0.3539;2.0313;3.3312;-0.2909;-0.5334;0.5043;2.093;5.89;10.14;-37.09;7.87;-37.32;15.68;2.0;1003.86;21.723;30.280647;-97.70971;490.75;NaN;;2.52;27.664516;89.5;18 / 22;3677;2018-02-21 20:28:33:653
-1.2984;3.77;4.2962;-1.3856;5.6654;7.888;-0.3539;2.0313;3.3312;-0.2909;-0.5334;0.5043;2.093;3.79;11.79;-37.39;4.51;-35.28;9.96;2.0;1003.86;21.723;30.280647;-97.70971;490.75;NaN;;2.52;27.664516;89.5;18 / 22;3688;2018-02-21 20:28:33:664
-1.2984;3.77;4.2962;-1.3856;5.6654;7.888;-0.5843;-0.5934;3.4866;-0.2909;-0.5334;0.5043;2.093;3.79;11.79;-37.39;4.51;-35.28;9.96;2.0;1003.86;21.723;30.280647;-97.70971;490.75;NaN;;2.52;27.664516;89.5;18 / 22;3698;2018-02-21 20:28:33:674
-1.2984;3.77;4.2962;-1.3856;5.6654;7.888;-0.5843;-0.5934;3.4866;-0.2909;-0.5334;0.5043;2.093;3.79;11.79;-37.39;4.51;-35.28;9.96;2.0;1003.86;21.723;30.280647;-97.70971;490.75;NaN;;2.52;27.664516;89.5;18 / 22;3708;2018-02-21 20:28:33:684
-1.2984;3.77;4.2962;-1.3856;5.6654;7.888;-0.5843;-0.5934;3.4866;-0.2909;-0.5334;0.5043;2.093;3.79;11.79;-37.39;4.51;-35.28;9.96;2.0;1003.86;21.723;30.280647;-97.70971;490.75;NaN;;2.52;27.664516;89.5;18 / 22;3717;2018-02-21 20:28:33:693
-1.2984;3.77;4.2962;-1.3856;5.6654;7.888;-0.5843;-0.5934;3.4866;-0.2909;-0.5334;0.5043;2.093;3.79;11.79;-37.39;4.51;-35.28;9.96;2.0;1003.86;21.723;30.280647;-97.70971;490.75;NaN;;2.52;27.664516;89.5;18 / 22;3728;2018-02-21 20:28:33:704
-1.2984;3.77;4.2962;-1.3856;5.6654;7.888;-0.5843;-0.5934;3.4866;0.1551;-0.6106;-0.2123;2.093;3.79;11.79;-37.39;4.51;-35.28;9.96;2.0;1003.86;21.723;30.280647;-97.70971;490.75;NaN;;2.52;27.664516;89.5;18 / 22;3737;2018-02-21 20:28:33:713
-1.2984;3.77;4.2962;-1.3856;5.6654;7.888;-0.5843;-0.5934;3.4866;0.1551;-0.6106;-0.2123;2.093;3.79;11.79;-37.39;4.51;-35.28;9.96;2.0;1003.86;21.723;30.280647;-97.70971;490.75;NaN;;2.52;27.664516;89.5;18 / 22;3747;2018-02-21 20:28:33:723
-1.2984;3.77;4.2962;-1.3856;5.6654;7.888;-0.5843;-0.5934;3.4866;0.1551;-0.6106;-0.2123;2.093;3.79;11.79;-37.39;4.51;-35.28;9.96;2.0;1003.86;21.723;30.280647;-97.70971;490.75;NaN;;2.52;27.664516;89.5;18 / 22;3758;2018-02-21 20:28:33:734
-0.6637;7.0626;4.8062;-1.3856;5.6654;7.888;-0.5843;-0.5934;3.4866;0.1551;-0.6106;-0.2123;2.093;3.79;11.79;-37.39;4.51;-35.28;9.96;2.0;1003.86;21.723;30.280647;-97.70971;490.75;NaN;;2.52;27.664516;89.5;18 / 22;3767;2018-02-21 20:28:33:743
-0.6637;7.0626;4.8062;-1.3856;5.6654;7.888;-0.5843;-0.5934;3.4866;0.1551;-0.6106;-0.2123;2.093;3.79;11.79;-37.39;4.51;-35.28;9.96;2.0;1003.86;21.723;30.280647;-97.70971;490.75;NaN;;2.52;27.664516;89.5;18 / 22;3778;2018-02-21 20:28:33:754
-0.6637;7.0626;4.8062;-1.3856;5.6654;7.888;-0.5843;-0.5934;3.4866;0.1551;-0.6106;-0.2123;2.093;3.79;11.79;-37.39;4.51;-35.28;9.96;2.0;1003.86;21.723;30.280647;-97.70971;490.75;NaN;;2.52;27.664516;89.5;18 / 22;3787;2018-02-21 20:28:33:763
-0.6637;7.0626;4.8062;-0.8955;5.7746;7.8796;-0.5843;-0.5934;3.4866;0.1551;-0.6106;-0.2123;2.093;1.04;10.59;-35.34;5.74;-36.06;6.48;2.0;1003.86;21.723;30.280647;-97.70971;490.75;NaN;;2.52;27.664516;89.5;18 / 22;3798;2018-02-21 20:28:33:774
-0.6637;7.0626;4.8062;-0.8955;5.7746;7.8796;0.1711;-3.6589;-4.6573;0.1551;-0.6106;-0.2123;2.093;1.04;10.59;-35.34;5.74;-36.06;6.48;2.0;1003.86;21.723;30.280647;-97.70971;490.75;NaN;;2.52;27.664516;89.5;18 / 22;3807;2018-02-21 20:28:33:783
-0.6637;7.0626;4.8062;-0.8955;5.7746;7.8796;0.1711;-3.6589;-4.6573;0.1551;-0.6106;-0.2123;2.093;1.04;10.59;-35.34;5.74;-36.06;6.48;2.0;1003.86;21.723;30.280647;-97.70971;490.75;NaN;;2.52;27.664516;89.5;18 / 22;3818;2018-02-21 20:28:33:794
-0.6637;7.0626;4.8062;-0.8955;5.7746;7.8796;0.1711;-3.6589;-4.6573;0.1551;-0.6106;-0.2123;2.093;1.04;10.59;-35.34;5.74;-36.06;6.48;2.0;1003.86;21.723;30.280647;-97.70971;490.75;NaN;;2.52;27.664516;89.5;18 / 22;3827;2018-02-21 20:28:33:803
-0.6637;7.0626;4.8062;-0.8955;5.7746;7.8796;0.1711;-3.6589;-4.6573;0.1551;-0.6106;-0.2123;2.093;1.04;10.59;-35.34;5.74;-36.06;6.48;2.0;1003.86;21.723;30.280647;-97.70971;490.75;NaN;;2.52;27.664516;89.5;18 / 22;3838;2018-02-21 20:28:33:814
-0.6637;7.0626;4.8062;-0.8955;5.7746;7.8796;0.1711;-3.6589;-4.6573;0.1551;-0.6106;-0.2123;2.093;1.04;10.59;-35.34;5.74;-36.06;6.48;2.0;1003.86;21.723;30.280647;-97.70971;490.75;NaN;;2.52;27.664516;89.5;18 / 22;3848;2018-02-21 20:28:33:824
-0.6637;7.0626;4.8062;-0.8955;5.7746;7.8796;0.1711;-3.6589;-4.6573;0.1551;-0.6106;-0.2123;2.093;1.04;10.59;-35.34;5.74;-36.06;6.48;2.0;1003.85;21.723;30.280647;-97.70971;490.75;NaN;;2.52;27.664516;89.5;18 / 22;3857;2018-02-21 20:28:33:833
-0.6637;7.0626;4.8062;-0.8955;5.7746;7.8796;0.1711;-3.6589;-4.6573;-0.2424;-0.261;-0.3293;2.093;1.04;10.59;-35.34;5.74;-36.06;6.48;2.0;1003.85;21.723;30.280647;-97.70971;490.75;NaN;;2.52;27.664516;89.5;18 / 22;3868;2018-02-21 20:28:33:844
-0.6637;7.0626;4.8062;-0.8955;5.7746;7.8796;0.1711;-3.6589;-4.6573;-0.2424;-0.261;-0.3293;2.093;1.04;10.59;-35.34;5.74;-36.06;6.48;2.0;1003.85;21.723;30.280647;-97.70971;490.75;NaN;;2.52;27.664516;89.5;18 / 22;3877;2018-02-21 20:28:33:853
-0.6637;7.0626;4.8062;-0.8955;5.7746;7.8796;0.1711;-3.6589;-4.6573;-0.2424;-0.261;-0.3293;2.093;1.04;10.59;-35.34;5.74;-36.06;6.48;2.0;1003.85;21.723;30.280647;-97.70971;490.75;NaN;;2.52;27.664516;89.5;18 / 22;3888;2018-02-21 20:28:33:864
-0.6637;7.0626;4.8062;-0.8955;5.7746;7.8796;0.1711;-3.6589;-4.6573;-0.2424;-0.261;-0.3293;2.093;1.04;10.59;-35.34;5.74;-36.06;6.48;2.0;1003.85;21.723;30.280647;-97.70971;490.75;NaN;;2.52;27.664516;89.5;18 / 22;3898;2018-02-21 20:28:33:874
-0.6637;7.0626;4.8062;-0.8955;5.7746;7.8796;0.1711;-3.6589;-4.6573;-0.2424;-0.261;-0.3293;2.093;1.04;10.59;-35.34;5.74;-36.06;6.48;2.0;1003.85;21.723;30.280647;-97.70971;490.75;NaN;;2.52;27.664516;89.5;18 / 22;3907;2018-02-21 20:28:33:883
-1.9368;7.185;14.5352;-0.6612;5.9325;7.7849;0.1711;-3.6589;-4.6573;-0.2424;-0.261;-0.3293;2.093;0.29;11.19;-35.34;7.67;-36.06;6.48;2.0;1003.85;21.723;30.280647;-97.70971;490.75;NaN;;2.52;27.664516;89.5;18 / 22;3918;2018-02-21 20:28:33:894
-1.9368;7.185;14.5352;-0.6612;5.9325;7.7849;-0.7376;0.1686;-2.5383;-0.2424;-0.261;-0.3293;2.093;0.29;11.19;-35.34;7.67;-36.06;6.48;2.0;1003.85;21.723;30.280647;-97.70971;490.75;NaN;;2.52;27.664516;89.5;18 / 22;3927;2018-02-21 20:28:33:903
-1.9368;7.185;14.5352;-0.6612;5.9325;7.7849;-0.7376;0.1686;-2.5383;-0.2424;-0.261;-0.3293;2.093;0.29;11.19;-35.34;7.67;-36.06;6.48;2.0;1003.85;21.723;30.280647;-97.70971;490.75;NaN;;2.52;27.664516;89.5;18 / 22;3938;2018-02-21 20:28:33:914
-1.9368;7.185;14.5352;-0.6612;5.9325;7.7849;-0.7376;0.1686;-2.5383;-0.2424;-0.261;-0.3293;2.093;0.29;11.19;-35.34;7.67;-36.06;6.48;2.0;1003.85;21.723;30.280647;-97.70971;490.75;NaN;;2.52;27.664516;89.5;18 / 22;3948;2018-02-21 20:28:33:924
-1.9368;7.185;14.5352;-0.6612;5.9325;7.7849;-0.7376;0.1686;-2.5383;-0.2424;-0.261;-0.3293;2.093;0.29;11.19;-35.34;7.67;-36.06;6.48;2.0;1003.85;21.723;30.280647;-97.70971;490.75;NaN;;2.52;27.664516;89.5;18 / 22;3957;2018-02-21 20:28:33:933
-1.9368;7.185;14.5352;-0.6612;5.9325;7.7849;-0.7376;0.1686;-2.5383;-0.2424;-0.261;-0.3293;2.093;0.29;11.19;-35.34;7.67;-36.06;6.48;2.0;1003.85;30.352;30.280647;-97.70971;490.75;NaN;;2.52;27.664516;89.5;18 / 22;3968;2018-02-21 20:28:33:944
-1.9368;7.185;14.5352;-0.6612;5.9325;7.7849;-0.7376;0.1686;-2.5383;-0.2424;-0.261;-0.3293;2.093;0.29;11.19;-35.34;7.67;-36.06;6.48;2.0;1003.85;30.352;30.280647;-97.70971;490.75;NaN;;2.52;27.664516;89.5;18 / 22;3977;2018-02-21 20:28:33:953
-1.9368;7.185;14.5352;-0.6612;5.9325;7.7849;-0.7376;0.1686;-2.5383;0.5407;-0.4418;-0.523;2.093;0.29;11.19;-35.34;7.67;-36.06;6.48;2.0;1003.85;30.352;30.280647;-97.70971;490.75;NaN;;2.52;27.664516;89.5;18 / 22;3988;2018-02-21 20:28:33:964
-1.9368;7.185;14.5352;-0.6612;5.9325;7.7849;-0.7376;0.1686;-2.5383;0.5407;-0.4418;-0.523;2.093;0.29;11.19;-35.34;7.67;-36.06;6.48;2.0;1003.85;30.352;30.280647;-97.70971;490.75;NaN;;2.52;27.664516;89.5;18 / 22;3998;2018-02-21 20:28:33:974
-1.9368;7.185;14.5352;-0.6612;5.9325;7.7849;-0.7376;0.1686;-2.5383;0.5407;-0.4418;-0.523;2.093;0.29;11.19;-35.34;7.67;-36.06;6.48;2.0;1003.85;30.352;30.280647;-97.70971;490.75;NaN;;2.52;27.664516;89.5;18 / 22;4008;2018-02-21 20:28:33:984
-1.9368;7.185;14.5352;-0.6612;5.9325;7.7849;-0.7376;0.1686;-2.5383;0.5407;-0.4418;-0.523;2.093;0.29;11.19;-35.34;7.67;-36.06;6.48;2.0;1003.85;30.352;30.280647;-97.70971;490.75;NaN;;2.52;27.664516;89.5;18 / 22;4018;2018-02-21 20:28:33:994
-1.9368;7.185;14.5352;-0.6612;5.9325;7.7849;-0.7376;0.1686;-2.5383;0.5407;-0.4418;-0.523;2.093;-1.96;6.79;-33.79;10.63;-37.21;4.85;2.0;1003.85;30.352;30.280647;-97.70971;490.75;NaN;;2.52;27.664516;89.5;18 / 22;4027;2018-02-21 20:28:34:003
-1.9368;7.185;14.5352;-0.6612;5.9325;7.7849;-0.3641;2.28;2.2243;0.5407;-0.4418;-0.523;2.093;-1.96;6.79;-33.79;10.63;-37.21;4.85;2.0;1003.85;30.352;30.280647;-97.70971;490.75;NaN;;2.52;27.664516;89.5;18 / 22;4038;2018-02-21 20:28:34:014
0.9125;4.6466;7.2083;-0.6182;6.2934;7.4998;-0.3641;2.28;2.2243;0.5407;-0.4418;-0.523;2.093;-1.96;6.79;-33.79;10.63;-37.21;4.85;2.0;1003.85;30.352;30.280647;-97.70971;490.75;NaN;;2.52;27.664516;89.5;18 / 22;4048;2018-02-21 20:28:34:024
0.9125;4.6466;7.2083;-0.6182;6.2934;7.4998;-0.3641;2.28;2.2243;0.5407;-0.4418;-0.523;2.093;-1.96;6.79;-33.79;10.63;-37.21;4.85;2.0;1003.86;30.352;30.280647;-97.70971;490.75;NaN;;2.52;27.664516;89.5;18 / 22;4057;2018-02-21 20:28:34:033
0.9125;4.6466;7.2083;-0.6182;6.2934;7.4998;-0.3641;2.28;2.2243;0.5407;-0.4418;-0.523;2.093;-1.96;6.79;-33.79;10.63;-37.21;4.85;2.0;1003.86;30.352;30.280647;-97.70971;490.75;NaN;;2.52;27.664516;89.5;18 / 22;4068;2018-02-21 20:28:34:044
0.9125;4.6466;7.2083;-0.6182;6.2934;7.4998;-0.3641;2.28;2.2243;0.5407;-0.4418;-0.523;2.093;-1.96;6.79;-33.79;10.63;-37.21;4.85;2.0;1003.86;30.352;30.280647;-97.70971;490.75;NaN;;2.52;27.664516;89.5;18 / 22;4078;2018-02-21 20:28:34:054
0.9125;4.6466;7.2083;-0.6182;6.2934;7.4998;-0.3641;2.28;2.2243;0.5407;-0.4418;-0.523;2.093;-1.96;6.79;-33.79;10.63;-37.21;4.85;2.0;1003.86;30.352;30.280647;-97.70971;490.75;NaN;;2.52;27.664516;89.5;18 / 22;4088;2018-02-21 20:28:34:064
0.9125;4.6466;7.2083;-0.6182;6.2934;7.4998;-0.3641;2.28;2.2243;0.5407;-0.4418;-0.523;2.093;-1.96;6.79;-33.79;10.63;-37.21;4.85;2.0;1003.86;30.352;30.280647;-97.70971;490.75;NaN;;2.52;27.664516;89.5;18 / 22;4097;2018-02-21 20:28:34:073
0.9125;4.6466;7.2083;-0.6182;6.2934;7.4998;-0.3641;2.28;2.2243;0.5407;-0.4418;-0.523;2.093;-1.96;6.79;-33.79;10.63;-37.21;4.85;2.0;1003.86;30.352;30.280647;-97.70971;490.75;NaN;;2.52;27.664516;89.5;18 / 22;4108;2018-02-21 20:28:34:084
0.9125;4.6466;7.2083;-0.6182;6.2934;7.4998;-0.3641;2.28;2.2243;0.102;-0.4319;-0.4703;2.093;-1.96;6.79;-33.79;10.63;-37.21;4.85;2.0;1003.86;30.352;30.280647;-97.70971;490.75;NaN;;2.52;27.664516;89.5;18 / 22;4117;2018-02-21 20:28:34:093
0.9125;4.6466;7.2083;-0.6182;6.2934;7.4998;-0.3641;2.28;2.2243;0.102;-0.4319;-0.4703;2.093;-1.96;6.79;-33.79;10.63;-37.21;4.85;2.0;1003.86;30.352;30.280647;-97.70971;490.75;NaN;;2.52;27.664516;89.5;18 / 22;4128;2018-02-21 20:28:34:104
0.9125;4.6466;7.2083;-0.6182;6.2934;7.4998;-0.3641;2.28;2.2243;0.102;-0.4319;-0.4703;2.093;-1.96;6.79;-33.79;10.63;-37.21;4.85;2.0;1003.86;30.352;30.280647;-97.70971;490.75;NaN;;2.52;27.664516;89.5;18 / 22;4137;2018-02-21 20:28:34:113
0.9125;4.6466;7.2083;-0.6182;6.2934;7.4998;-0.3641;2.28;2.2243;0.102;-0.4319;-0.4703;2.093;-1.81;5.54;-32.99;10.41;-39.91;4.71;2.0;1003.86;30.352;30.280647;-97.70971;490.75;NaN;;2.52;27.664516;89.5;18 / 22;4148;2018-02-21 20:28:34:124
0.9125;4.6466;7.2083;-0.6182;6.2934;7.4998;0.0577;1.1975;0.9938;0.102;-0.4319;-0.4703;2.093;-1.81;5.54;-32.99;10.41;-39.91;4.71;2.0;1003.86;30.352;30.280647;-97.70971;490.75;NaN;;2.52;27.664516;89.5;18 / 22;4157;2018-02-21 20:28:34:133
0.9125;4.6466;7.2083;-0.5929;6.441;7.3755;0.0577;1.1975;0.9938;0.102;-0.4319;-0.4703;2.093;-1.81;5.54;-32.99;10.41;-39.91;4.71;2.0;1003.86;30.352;30.280647;-97.70971;490.75;NaN;;2.52;27.664516;89.5;18 / 22;4168;2018-02-21 20:28:34:144
0.9125;4.6466;7.2083;-0.5929;6.441;7.3755;0.0577;1.1975;0.9938;0.102;-0.4319;-0.4703;2.093;-1.81;5.54;-32.99;10.41;-39.91;4.71;2.0;1003.86;30.352;30.280647;-97.70971;490.75;NaN;;2.52;27.664516;89.5;18 / 22;4177;2018-02-21 20:28:34:153
-0.2996;4.9126;6.0497;-0.5929;6.441;7.3755;0.0577;1.1975;0.9938;0.102;-0.4319;-0.4703;2.093;-1.81;5.54;-32.99;10.41;-39.91;4.71;2.0;1003.86;30.352;30.280647;-97.70971;490.75;NaN;;2.52;27.664516;89.5;18 / 22;4188;2018-02-21 20:28:34:164
-0.2996;4.9126;6.0497;-0.5929;6.441;7.3755;0.0577;1.1975;0.9938;0.102;-0.4319;-0.4703;2.093;-1.81;5.54;-32.99;10.41;-39.91;4.71;2.0;1003.86;30.352;30.280647;-97.70971;490.75;NaN;;2.52;27.664516;89.5;18 / 22;4198;2018-02-21 20:28:34:174
-0.2996;4.9126;6.0497;-0.5929;6.441;7.3755;0.0577;1.1975;0.9938;0.102;-0.4319;-0.4703;2.093;-1.81;5.54;-32.99;10.41;-39.91;4.71;2.0;1003.86;30.352;30.280647;-97.70971;490.75;NaN;;2.52;27.664516;89.5;18 / 22;4208;2018-02-21 20:28:34:184
-0.2996;4.9126;6.0497;-0.5929;6.441;7.3755;0.0577;1.1975;0.9938;0.102;-0.4319;-0.4703;2.093;-1.81;5.54;-32.99;10.41;-39.91;4.71;2.0;1003.86;30.352;30.280647;-97.70971;490.75;NaN;;2.52;27.664516;89.5;18 / 22;4218;2018-02-21 20:28:34:194
-0.2996;4.9126;6.0497;-0.5929;6.441;7.3755;0.0577;1.1975;0.9938;0.102;-0.4319;-0.4703;2.093;-1.81;5.54;-32.99;10.41;-39.91;4.71;2.0;1003.86;30.352;30.280647;-97.70971;490.75;NaN;;2.52;27.664516;89.5;18 / 22;4227;2018-02-21 20:28:34:203
-0.2996;4.9126;6.0497;-0.5929;6.441;7.3755;0.0577;1.1975;0.9938;0.0808;-0.1595;-0.2524;2.093;-1.81;5.54;-32.99;10.41;-39.91;4.71;2.0;1003.86;30.352;30.280647;-97.70971;490.75;NaN;;2.52;27.664516;89.5;18 / 22;4238;2018-02-21 20:28:34:214
-0.2996;4.9126;6.0497;-0.5929;6.441;7.3755;0.0577;1.1975;0.9938;0.0808;-0.1595;-0.2524;2.093;-1.81;5.54;-32.99;10.41;-39.91;4.71;2.0;1003.86;30.352;30.280647;-97.70971;490.75;NaN;;2.52;27.664516;89.5;18 / 22;4247;2018-02-21 20:28:34:223
-0.2996;4.9126;6.0497;-0.5929;6.441;7.3755;0.0577;1.1975;0.9938;0.0808;-0.1595;-0.2524;2.093;-2.06;5.59;-32.14;10.19;-41.04;4.6;2.0;1003.85;30.352;30.280647;-97.70971;490.75;NaN;;2.52;27.664516;89.5;18 / 22;4258;2018-02-21 20:28:34:234
-0.2996;4.9126;6.0497;-0.5929;6.441;7.3755;0.27;-0.1691;-0.8684;0.0808;-0.1595;-0.2524;2.093;-2.06;5.59;-32.14;10.19;-41.04;4.6;2.0;1003.85;30.352;30.280647;-97.70971;490.75;NaN;;2.52;27.664516;89.5;18 / 22;4268;2018-02-21 20:28:34:244
-0.2996;4.9126;6.0497;-0.5929;6.441;7.3755;0.27;-0.1691;-0.8684;0.0808;-0.1595;-0.2524;2.093;-2.06;5.59;-32.14;10.19;-41.04;4.6;2.0;1003.85;30.352;30.280647;-97.70971;490.75;NaN;;2.52;27.664516;89.5;18 / 22;4278;2018-02-21 20:28:34:254
-0.2996;4.9126;6.0497;-0.5929;6.441;7.3755;0.27;-0.1691;-0.8684;0.0808;-0.1595;-0.2524;2.093;-2.06;5.59;-32.14;10.19;-41.04;4.6;2.0;1003.85;30.352;30.280647;-97.70971;490.75;NaN;;2.52;27.664516;89.5;18 / 22;4288;2018-02-21 20:28:34:264
-0.2996;4.9126;6.0497;-0.6456;6.5193;7.3019;0.27;-0.1691;-0.8684;0.0808;-0.1595;-0.2524;2.093;-2.06;5.59;-32.14;10.19;-41.04;4.6;2.0;1003.85;29.768;30.280647;-97.70971;490.75;NaN;;2.52;27.664516;89.5;18 / 22;4298;2018-02-21 20:28:34:274
-0.2996;4.9126;6.0497;-0.6456;6.5193;7.3019;0.27;-0.1691;-0.8684;0.0808;-0.1595;-0.2524;2.093;-2.06;5.59;-32.14;10.19;-41.04;4.6;2.0;1003.85;29.768;30.280647;-97.70971;490.75;NaN;;2.52;27.664516;89.5;18 / 22;4308;2018-02-21 20:28:34:284
-0.2996;4.9126;6.0497;-0.6456;6.5193;7.3019;0.27;-0.1691;-0.8684;0.0808;-0.1595;-0.2524;2.093;-2.06;5.59;-32.14;10.19;-41.04;4.6;2.0;1003.85;29.768;30.280647;-97.70971;490.75;NaN;;2.52;27.664516;89.5;18 / 22;4317;2018-02-21 20:28:34:293
-0.9343;6.6219;8.0791;-0.6456;6.5193;7.3019;0.27;-0.1691;-0.8684;0.0808;-0.1595;-0.2524;2.093;-2.06;5.59;-32.14;10.19;-41.04;4.6;2.0;1003.85;29.768;30.280647;-97.70971;490.75;NaN;;2.52;27.664516;89.5;18 / 22;4328;2018-02-21 20:28:34:304
-0.9343;6.6219;8.0791;-0.6456;6.5193;7.3019;0.27;-0.1691;-0.8684;0.0808;-0.1595;-0.2524;2.093;-2.06;5.59;-32.14;10.19;-41.04;4.6;2.0;1003.85;29.768;30.280647;-97.70971;490.75;NaN;;2.52;27.664516;89.5;18 / 22;4337;2018-02-21 20:28:34:313
-0.9343;6.6219;8.0791;-0.6456;6.5193;7.3019;0.27;-0.1691;-0.8684;0.0808;-0.1595;-0.2524;2.093;-2.06;5.59;-32.14;10.19;-41.04;4.6;2.0;1003.85;29.768;30.280647;-97.70971;490.75;NaN;;2.52;27.664516;89.5;18 / 22;4348;2018-02-21 20:28:34:324
-0.9343;6.6219;8.0791;-0.6456;6.5193;7.3019;0.27;-0.1691;-0.8684;0.0808;-0.1595;-0.2524;2.093;-2.06;5.59;-32.14;10.19;-41.04;4.6;2.0;1003.85;29.768;30.280647;-97.70971;490.75;NaN;;2.52;27.664516;89.5;18 / 22;4357;2018-02-21 20:28:34:333
-0.9343;6.6219;8.0791;-0.6456;6.5193;7.3019;0.27;-0.1691;-0.8684;0.2988;0.1844;-0.2461;2.093;-2.06;5.59;-32.14;10.19;-41.04;4.6;2.0;1003.85;29.768;30.280647;-97.70971;490.75;NaN;;2.52;27.664516;89.5;18 / 22;4368;2018-02-21 20:28:34:344
-0.9343;6.6219;8.0791;-0.6456;6.5193;7.3019;0.27;-0.1691;-0.8684;0.2988;0.1844;-0.2461;2.093;-1.86;3.54;-31.34;11.41;-41.65;5.05;2.0;1003.85;29.768;30.280647;-97.70971;490.75;NaN;;2.52;27.664516;89.5;18 / 22;4378;2018-02-21 20:28:34:354
-0.9343;6.6219;8.0791;-0.6456;6.5193;7.3019;1.2767;-1.3604;-2.0776;0.2988;0.1844;-0.2461;2.093;-1.86;3.54;-31.34;11.41;-41.65;5.05;2.0;1003.85;29.768;30.280647;-97.70971;490.75;NaN;;2.52;27.664516;89.5;18 / 22;4387;2018-02-21 20:28:34:363
-0.9343;6.6219;8.0791;-0.6456;6.5193;7.3019;1.2767;-1.3604;-2.0776;0.2988;0.1844;-0.2461;2.093;-1.86;3.54;-31.34;11.41;-41.65;5.05;2.0;1003.85;29.768;30.280647;-97.70971;490.75;NaN;;2.52;27.664516;89.5;18 / 22;4398;2018-02-21 20:28:34:374
-0.9343;6.6219;8.0791;-0.6456;6.5193;7.3019;1.2767;-1.3604;-2.0776;0.2988;0.1844;-0.2461;2.093;-1.86;3.54;-31.34;11.41;-41.65;5.05;2.0;1003.85;29.768;30.280647;-97.70971;490.75;NaN;;2.52;27.664516;89.5;18 / 22;4407;2018-02-21 20:28:34:383
-0.9343;6.6219;8.0791;-0.8645;6.6846;7.1278;1.2767;-1.3604;-2.0776;0.2988;0.1844;-0.2461;2.093;-1.86;3.54;-31.34;11.41;-41.65;5.05;2.0;1003.85;29.768;30.280647;-97.70971;490.75;NaN;;2.52;27.664516;89.5;18 / 22;4418;2018-02-21 20:28:34:394
-0.9343;6.6219;8.0791;-0.8645;6.6846;7.1278;1.2767;-1.3604;-2.0776;0.2988;0.1844;-0.2461;2.093;-1.86;3.54;-31.34;11.41;-41.65;5.05;2.0;1003.85;29.768;30.280647;-97.70971;490.75;NaN;;2.52;27.664516;89.5;18 / 22;4427;2018-02-21 20:28:34:403
-0.9343;6.6219;8.0791;-0.8645;6.6846;7.1278;1.2767;-1.3604;-2.0776;0.2988;0.1844;-0.2461;2.093;-1.86;3.54;-31.34;11.41;-41.65;5.05;2.0;1003.85;29.768;30.280647;-97.70971;490.75;NaN;;2.52;27.664516;89.5;18 / 22;4438;2018-02-21 20:28:34:414
-0.9343;6.6219;8.0791;-0.8645;6.6846;7.1278;1.2767;-1.3604;-2.0776;0.2988;0.1844;-0.2461;2.093;-1.86;3.54;-31.34;11.41;-41.65;5.05;2.0;1003.85;29.768;30.280647;-97.7097;486.99;NaN;;2.63;27.664516;89.5;18 / 22;4447;2018-02-21 20:28:34:423
-0.9343;6.6219;8.0791;-0.8645;6.6846;7.1278;1.2767;-1.3604;-2.0776;0.2988;0.1844;-0.2461;2.093;-1.86;3.54;-31.34;11.41;-41.65;5.05;2.0;1003.84;29.768;30.280647;-97.7097;486.99;NaN;;2.63;27.664516;89.5;18 / 22;4458;2018-02-21 20:28:34:434
-2.7393;7.1279;8.7014;-0.8645;6.6846;7.1278;1.2767;-1.3604;-2.0776;0.2988;0.1844;-0.2461;2.093;-1.86;3.54;-31.34;11.41;-41.65;5.05;2.0;1003.84;29.768;30.280647;-97.7097;486.99;NaN;;2.63;27.664516;89.5;18 / 22;4467;2018-02-21 20:28:34:443
-2.7393;7.1279;8.7014;-0.8645;6.6846;7.1278;1.2767;-1.3604;-2.0776;0.2988;0.1844;-0.2461;2.093;-1.86;3.54;-31.34;11.41;-41.65;5.05;2.0;1003.84;29.768;30.280647;-97.7097;486.99;NaN;;2.63;27.664516;89.5;18 / 22;4478;2018-02-21 20:28:34:454
-2.7393;7.1279;8.7014;-0.8645;6.6846;7.1278;1.2767;-1.3604;-2.0776;-0.0292;-0.257;0.0447;2.093;-1.31;3.69;-31.19;11.22;-42.95;6.92;2.0;1003.84;29.768;30.280647;-97.7097;486.99;NaN;;2.63;27.664516;89.5;18 / 22;4487;2018-02-21 20:28:34:463
-2.7393;7.1279;8.7014;-0.8645;6.6846;7.1278;0.9118;0.7131;0.3951;-0.0292;-0.257;0.0447;2.093;-1.31;3.69;-31.19;11.22;-42.95;6.92;2.0;1003.84;29.768;30.280647;-97.7097;486.99;NaN;;2.63;27.664516;89.5;18 / 22;4497;2018-02-21 20:28:34:473
-2.7393;7.1279;8.7014;-0.8645;6.6846;7.1278;0.9118;0.7131;0.3951;-0.0292;-0.257;0.0447;2.093;-1.31;3.69;-31.19;11.22;-42.95;6.92;2.0;1003.84;29.768;30.280647;-97.7097;486.99;NaN;;2.63;27.664516;89.5;18 / 22;4508;2018-02-21 20:28:34:484
-2.7393;7.1279;8.7014;-0.8645;6.6846;7.1278;0.9118;0.7131;0.3951;-0.0292;-0.257;0.0447;2.093;-1.31;3.69;-31.19;11.22;-42.95;6.92;2.0;1003.84;29.768;30.280647;-97.7097;486.99;NaN;;2.63;27.664516;89.5;18 / 22;4517;2018-02-21 20:28:34:493
-2.7393;7.1279;8.7014;-0.8645;6.6846;7.1278;0.9118;0.7131;0.3951;-0.0292;-0.257;0.0447;2.093;-1.31;3.69;-31.19;11.22;-42.95;6.92;2.0;1003.84;29.768;30.280647;-97.7097;486.99;NaN;;2.63;27.664516;89.5;18 / 22;4528;2018-02-21 20:28:34:504
-2.7393;7.1279;8.7014;-0.8645;6.6846;7.1278;0.9118;0.7131;0.3951;-0.0292;-0.257;0.0447;2.093;-1.31;3.69;-31.19;11.22;-42.95;6.92;2.0;1003.84;29.768;30.280647;-97.7097;486.99;NaN;;2.63;27.664516;89.5;18 / 22;4537;2018-02-21 20:28:34:513
-2.7393;7.1279;8.7014;-0.6682;6.6959;7.1382;0.9118;0.7131;0.3951;-0.0292;-0.257;0.0447;2.093;-1.31;3.69;-31.19;11.22;-42.95;6.92;2.0;1003.84;29.768;30.280647;-97.7097;486.99;NaN;;2.63;27.664516;89.5;18 / 22;4548;2018-02-21 20:28:34:524
-2.7393;7.1279;8.7014;-0.6682;6.6959;7.1382;0.9118;0.7131;0.3951;-0.0292;-0.257;0.0447;2.093;-1.31;3.69;-31.19;11.22;-42.95;6.92;2.0;1003.84;29.768;30.280647;-97.7097;486.99;NaN;;2.63;27.664516;89.5;18 / 22;4557;2018-02-21 20:28:34:533
-2.7393;7.1279;8.7014;-0.6682;6.6959;7.1382;0.9118;0.7131;0.3951;-0.0292;-0.257;0.0447;2.093;-1.31;3.69;-31.19;11.22;-42.95;6.92;2.0;1003.84;29.768;30.280647;-97.7097;486.99;NaN;;2.63;27.664516;89.5;18 / 22;4568;2018-02-21 20:28:34:544
-2.7393;7.1279;8.7014;-0.6682;6.6959;7.1382;0.9118;0.7131;0.3951;-0.0292;-0.257;0.0447;2.093;-1.31;3.69;-31.19;11.22;-42.95;6.92;2.0;1003.84;29.768;30.280647;-97.7097;486.99;NaN;;2.63;27.664516;89.5;18 / 22;4578;2018-02-21 20:28:34:554
-2.7393;7.1279;8.7014;-0.6682;6.6959;7.1382;0.9118;0.7131;0.3951;-0.0292;-0.257;0.0447;2.093;-1.31;3.69;-31.19;11.22;-42.95;6.92;2.0;1003.84;29.768;30.280647;-97.7097;486.99;NaN;;2.63;27.664516;89.5;18 / 22;4587;2018-02-21 20:28:34:563
-2.7393;7.1279;8.7014;-0.6682;6.6959;7.1382;0.9118;0.7131;0.3951;-0.0292;-0.257;0.0447;2.093;-1.31;3.69;-31.19;11.22;-42.95;6.92;2.0;1003.84;29.768;30.280647;-97.7097;486.99;NaN;;2.63;27.664516;89.5;18 / 22;4598;2018-02-21 20:28:34:574
-0.7691;6.0791;6.1333;-0.6682;6.6959;7.1382;0.9118;0.7131;0.3951;-0.2175;-0.3949;0.2605;2.093;-2.91;3.39;-32.19;14.11;-43.04;5.35;2.0;1003.84;25.56;30.280647;-97.7097;486.99;NaN;;2.63;27.664516;89.5;18 / 22;4607;2018-02-21 20:28:34:583
-0.7691;6.0791;6.1333;-0.6682;6.6959;7.1382;-0.208;0.9257;2.21;-0.2175;-0.3949;0.2605;2.093;-2.91;3.39;-32.19;14.11;-43.04;5.35;2.0;1003.84;25.56;30.280647;-97.7097;486.99;NaN;;2.63;27.664516;89.5;18 / 22;4618;2018-02-21 20:28:34:594
-0.7691;6.0791;6.1333;-0.6682;6.6959;7.1382;-0.208;0.9257;2.21;-0.2175;-0.3949;0.2605;2.093;-2.91;3.39;-32.19;14.11;-43.04;5.35;2.0;1003.84;25.56;30.280647;-97.7097;486.99;NaN;;2.63;27.664516;89.5;18 / 22;4627;2018-02-21 20:28:34:603
-0.7691;6.0791;6.1333;-0.6682;6.6959;7.1382;-0.208;0.9257;2.21;-0.2175;-0.3949;0.2605;2.093;-2.91;3.39;-32.19;14.11;-43.04;5.35;2.0;1003.84;25.56;30.280647;-97.7097;486.99;NaN;;2.63;27.664516;89.5;18 / 22;4638;2018-02-21 20:28:34:614
-0.7691;6.0791;6.1333;-0.6682;6.6959;7.1382;-0.208;0.9257;2.21;-0.2175;-0.3949;0.2605;2.093;-2.91;3.39;-32.19;14.11;-43.04;5.35;2.0;1003.84;25.56;30.280647;-97.7097;486.99;NaN;;2.63;27.664516;89.5;18 / 22;4648;2018-02-21 20:28:34:624
-0.7691;6.0791;6.1333;-0.6682;6.6959;7.1382;-0.208;0.9257;2.21;-0.2175;-0.3949;0.2605;2.093;-2.91;3.39;-32.19;14.11;-43.04;5.35;2.0;1003.83;25.56;30.280647;-97.7097;486.99;NaN;;2.63;27.664516;89.5;18 / 22;4658;2018-02-21 20:28:34:634
-0.7691;6.0791;6.1333;-0.0897;6.6929;7.1717;-0.208;0.9257;2.21;-0.2175;-0.3949;0.2605;2.093;-2.91;3.39;-32.19;14.11;-43.04;5.35;2.0;1003.83;25.56;30.280647;-97.7097;486.99;NaN;;2.63;27.664516;89.5;18 / 22;4668;2018-02-21 20:28:34:644
-0.7691;6.0791;6.1333;-0.0897;6.6929;7.1717;-0.208;0.9257;2.21;-0.2175;-0.3949;0.2605;2.093;-2.91;3.39;-32.19;14.11;-43.04;5.35;2.0;1003.83;25.56;30.280647;-97.7097;486.99;NaN;;2.63;27.664516;89.5;18 / 22;4677;2018-02-21 20:28:34:653
-0.7691;6.0791;6.1333;-0.0897;6.6929;7.1717;-0.208;0.9257;2.21;-0.2175;-0.3949;0.2605;2.093;-2.91;3.39;-32.19;14.11;-43.04;5.35;2.0;1003.83;25.56;30.280647;-97.7097;486.99;NaN;;2.63;27.664516;89.5;18 / 22;4688;2018-02-21 20:28:34:664
-0.7691;6.0791;6.1333;-0.0897;6.6929;7.1717;-0.208;0.9257;2.21;-0.2175;-0.3949;0.2605;2.093;-2.91;3.39;-32.19;14.11;-43.04;5.35;2.0;1003.83;25.56;30.280647;-97.7097;486.99;NaN;;2.63;27.664516;89.5;18 / 22;4697;2018-02-21 20:28:34:673
-0.7691;6.0791;6.1333;-0.0897;6.6929;7.1717;-0.208;0.9257;2.21;-0.2175;-0.3949;0.2605;2.093;-2.91;3.39;-32.19;14.11;-43.04;5.35;2.0;1003.83;25.56;30.280647;-97.7097;486.99;NaN;;2.63;27.664516;89.5;18 / 22;4708;2018-02-21 20:28:34:684
-0.7691;6.0791;6.1333;-0.0897;6.6929;7.1717;-0.208;0.9257;2.21;-0.2175;-0.3949;0.2605;2.093;-2.91;3.39;-32.19;14.11;-43.04;5.35;2.0;1003.83;25.56;30.280647;-97.7097;486.99;NaN;;2.63;27.664516;89.5;18 / 22;4717;2018-02-21 20:28:34:693
-0.7691;6.0791;6.1333;-0.0897;6.6929;7.1717;-0.1384;0.2044;2.715;-0.2175;-0.3949;0.2605;2.093;-5.86;3.84;-30.49;15.28;-43.02;0.72;2.0;1003.83;25.56;30.280647;-97.7097;486.99;NaN;;2.63;27.664516;89.5;18 / 22;4728;2018-02-21 20:28:34:704
-0.7691;6.0791;6.1333;-0.0897;6.6929;7.1717;-0.1384;0.2044;2.715;0.0841;-0.3786;-0.064;2.093;-5.86;3.84;-30.49;15.28;-43.02;0.72;2.0;1003.83;25.56;30.280647;-97.7097;486.99;NaN;;2.63;27.664516;89.5;18 / 22;4738;2018-02-21 20:28:34:714
-0.7691;6.0791;6.1333;-0.0897;6.6929;7.1717;-0.1384;0.2044;2.715;0.0841;-0.3786;-0.064;2.093;-5.86;3.84;-30.49;15.28;-43.02;0.72;2.0;1003.83;25.56;30.280647;-97.7097;486.99;NaN;;2.63;27.664516;89.5;18 / 22;4748;2018-02-21 20:28:34:724
0.3352;6.2252;4.4766;-0.0897;6.6929;7.1717;-0.1384;0.2044;2.715;0.0841;-0.3786;-0.064;2.093;-5.86;3.84;-30.49;15.28;-43.02;0.72;2.0;1003.83;25.56;30.280647;-97.7097;486.99;NaN;;2.63;27.664516;89.5;18 / 22;4758;2018-02-21 20:28:34:734
0.3352;6.2252;4.4766;-0.0897;6.6929;7.1717;-0.1384;0.2044;2.715;0.0841;-0.3786;-0.064;2.093;-5.86;3.84;-30.49;15.28;-43.02;0.72;2.0;1003.83;25.56;30.280647;-97.7097;486.99;NaN;;2.63;27.664516;89.5;18 / 22;4767;2018-02-21 20:28:34:743
0.3352;6.2252;4.4766;-0.0897;6.6929;7.1717;-0.1384;0.2044;2.715;0.0841;-0.3786;-0.064;2.093;-5.86;3.84;-30.49;15.28;-43.02;0.72;2.0;1003.83;25.56;30.280647;-97.7097;486.99;NaN;;2.63;27.664516;89.5;18 / 22;4778;2018-02-21 20:28:34:754
0.3352;6.2252;4.4766;-0.0897;6.6929;7.1717;-0.1384;0.2044;2.715;0.0841;-0.3786;-0.064;2.093;-5.86;3.84;-30.49;15.28;-43.02;0.72;2.0;1003.83;25.56;30.280647;-97.7097;486.99;NaN;;2.63;27.664516;89.5;18 / 22;4788;2018-02-21 20:28:34:764
0.3352;6.2252;4.4766;0.2606;6.9331;6.9354;-0.1384;0.2044;2.715;0.0841;-0.3786;-0.064;2.093;-5.86;3.84;-30.49;15.28;-43.02;0.72;2.0;1003.83;25.56;30.280647;-97.7097;486.99;NaN;;2.63;27.664516;89.5;18 / 22;4798;2018-02-21 20:28:34:774
0.3352;6.2252;4.4766;0.2606;6.9331;6.9354;-0.1384;0.2044;2.715;0.0841;-0.3786;-0.064;2.093;-5.86;3.84;-30.49;15.28;-43.02;0.72;2.0;1003.83;25.56;30.280647;-97.7097;486.99;NaN;;2.63;27.664516;89.5;18 / 22;4808;2018-02-21 20:28:34:784
0.3352;6.2252;4.4766;0.2606;6.9331;6.9354;-0.1384;0.2044;2.715;0.0841;-0.3786;-0.064;2.093;-5.86;3.84;-30.49;15.28;-43.02;0.72;2.0;1003.83;25.56;30.280647;-97.7097;486.99;NaN;;2.63;27.664516;89.5;18 / 22;4818;2018-02-21 20:28:34:794
0.3352;6.2252;4.4766;0.2606;6.9331;6.9354;-0.1384;0.2044;2.715;0.0841;-0.3786;-0.064;2.093;-5.86;3.84;-30.49;15.28;-43.02;0.72;2.0;1003.83;25.56;30.280647;-97.7097;486.99;NaN;;2.63;27.664516;89.5;18 / 22;4828;2018-02-21 20:28:34:804
0.3352;6.2252;4.4766;0.2606;6.9331;6.9354;-0.1384;0.2044;2.715;0.0841;-0.3786;-0.064;2.093;-7.16;2.59;-29.24;14.53;-44.97;-2.15;2.0;1003.83;25.56;30.280647;-97.7097;486.99;NaN;;2.63;27.664516;89.5;18 / 22;4838;2018-02-21 20:28:34:814
0.3352;6.2252;4.4766;0.2606;6.9331;6.9354;-0.3738;-2.1073;-2.8424;0.0841;-0.3786;-0.064;2.093;-7.16;2.59;-29.24;14.53;-44.97;-2.15;2.0;1003.83;25.56;30.280647;-97.7097;486.99;NaN;;2.63;27.664516;89.5;18 / 22;4847;2018-02-21 20:28:34:823
0.3352;6.2252;4.4766;0.2606;6.9331;6.9354;-0.3738;-2.1073;-2.8424;-0.1038;-0.8553;-0.1071;2.093;-7.16;2.59;-29.24;14.53;-44.97;-2.15;2.0;1003.84;25.56;30.280647;-97.7097;486.99;NaN;;2.63;27.664516;89.5;18 / 22;4857;2018-02-21 20:28:34:833
0.3352;6.2252;4.4766;0.2606;6.9331;6.9354;-0.3738;-2.1073;-2.8424;-0.1038;-0.8553;-0.1071;2.093;-7.16;2.59;-29.24;14.53;-44.97;-2.15;2.0;1003.84;25.56;30.280647;-97.7097;486.99;NaN;;2.63;27.664516;89.5;18 / 22;4868;2018-02-21 20:28:34:844
0.3352;6.2252;4.4766;0.2606;6.9331;6.9354;-0.3738;-2.1073;-2.8424;-0.1038;-0.8553;-0.1071;2.093;-7.16;2.59;-29.24;14.53;-44.97;-2.15;2.0;1003.84;25.56;30.280647;-97.7097;486.99;NaN;;2.63;27.664516;89.5;18 / 22;4877;2018-02-21 20:28:34:853
0.5149;8.6068;9.6236;0.2606;6.9331;6.9354;-0.3738;-2.1073;-2.8424;-0.1038;-0.8553;-0.1071;2.093;-7.16;2.59;-29.24;14.53;-44.97;-2.15;2.0;1003.84;25.56;30.280647;-97.7097;486.99;NaN;;2.63;27.664516;89.5;18 / 22;4888;2018-02-21 20:28:34:864
0.5149;8.6068;9.6236;0.2606;6.9331;6.9354;-0.3738;-2.1073;-2.8424;-0.1038;-0.8553;-0.1071;2.093;-7.16;2.59;-29.24;14.53;-44.97;-2.15;2.0;1003.84;25.56;30.280647;-97.7097;486.99;NaN;;2.63;27.664516;89.5;18 / 22;4898;2018-02-21 20:28:34:874
0.5149;8.6068;9.6236;0.2606;6.9331;6.9354;-0.3738;-2.1073;-2.8424;-0.1038;-0.8553;-0.1071;2.093;-7.16;2.59;-29.24;14.53;-44.97;-2.15;2.0;1003.84;25.56;30.280647;-97.7097;486.99;NaN;;2.63;27.664516;89.5;18 / 22;4907;2018-02-21 20:28:34:883
0.5149;8.6068;9.6236;0.8001;6.8194;7.0065;-0.3738;-2.1073;-2.8424;-0.1038;-0.8553;-0.1071;2.093;-7.16;2.59;-29.24;14.53;-44.97;-2.15;2.0;1003.84;25.56;30.280647;-97.7097;486.99;NaN;;2.63;27.664516;89.5;18 / 22;4918;2018-02-21 20:28:34:894
0.5149;8.6068;9.6236;0.8001;6.8194;7.0065;-0.3738;-2.1073;-2.8424;-0.1038;-0.8553;-0.1071;2.093;-7.16;2.59;-29.24;14.53;-44.97;-2.15;2.0;1003.84;25.56;30.280647;-97.7097;486.99;NaN;;2.63;27.664516;89.5;18 / 22;4928;2018-02-21 20:28:34:904
0.5149;8.6068;9.6236;0.8001;6.8194;7.0065;-0.3738;-2.1073;-2.8424;-0.1038;-0.8553;-0.1071;2.093;-7.16;2.59;-29.24;14.53;-44.97;-2.15;2.0;1003.84;37.673;30.280647;-97.7097;486.99;NaN;;2.63;27.664516;89.5;18 / 22;4938;2018-02-21 20:28:34:914
0.5149;8.6068;9.6236;0.8001;6.8194;7.0065;-0.3738;-2.1073;-2.8424;-0.1038;-0.8553;-0.1071;2.093;-7.16;2.59;-29.24;14.53;-44.97;-2.15;2.0;1003.84;37.673;30.280647;-97.7097;486.99;NaN;;2.63;27.664516;89.5;18 / 22;4948;2018-02-21 20:28:34:924
0.5149;8.6068;9.6236;0.8001;6.8194;7.0065;-0.5973;-0.2489;-2.4462;-0.1038;-0.8553;-0.1071;2.093;-10.21;3.04;-28.54;16.13;-44.04;-6.51;2.0;1003.84;37.673;30.280647;-97.7097;486.99;NaN;;2.63;27.664516;89.5;18 / 22;4957;2018-02-21 20:28:34:933
0.5149;8.6068;9.6236;0.8001;6.8194;7.0065;-0.5973;-0.2489;-2.4462;-0.1038;-0.8553;-0.1071;2.093;-10.21;3.04;-28.54;16.13;-44.04;-6.51;2.0;1003.84;37.673;30.280647;-97.7097;486.99;NaN;;2.63;27.664516;89.5;18 / 22;4968;2018-02-21 20:28:34:944
0.5149;8.6068;9.6236;0.8001;6.8194;7.0065;-0.5973;-0.2489;-2.4462;-0.1038;-0.8553;-0.1071;2.093;-10.21;3.04;-28.54;16.13;-44.04;-6.51;2.0;1003.84;37.673;30.280647;-97.7097;486.99;NaN;;2.63;27.664516;89.5;18 / 22;4977;2018-02-21 20:28:34:953
0.5149;8.6068;9.6236;0.8001;6.8194;7.0065;-0.5973;-0.2489;-2.4462;-0.2899;-0.0319;-0.349;2.093;-10.21;3.04;-28.54;16.13;-44.04;-6.51;2.0;1003.84;37.673;30.280647;-97.7097;486.99;NaN;;2.63;27.664516;89.5;18 / 22;4988;2018-02-21 20:28:34:964
0.5149;8.6068;9.6236;0.8001;6.8194;7.0065;-0.5973;-0.2489;-2.4462;-0.2899;-0.0319;-0.349;2.093;-10.21;3.04;-28.54;16.13;-44.04;-6.51;2.0;1003.84;37.673;30.280647;-97.7097;486.99;NaN;;2.63;27.664516;89.5;18 / 22;4998;2018-02-21 20:28:34:974
0.5149;8.6068;9.6236;0.8001;6.8194;7.0065;-0.5973;-0.2489;-2.4462;-0.2899;-0.0319;-0.349;6.279;-10.21;3.04;-28.54;16.13;-44.04;-6.51;2.0;1003.84;37.673;30.280647;-97.7097;486.99;NaN;;2.63;27.664516;89.5;18 / 22;5008;2018-02-21 20:28:34:984
0.5149;8.6068;9.6236;0.8001;6.8194;7.0065;-0.5973;-0.2489;-2.4462;-0.2899;-0.0319;-0.349;6.279;-10.21;3.04;-28.54;16.13;-44.04;-6.51;2.0;1003.84;37.673;30.280647;-97.7097;486.99;NaN;;2.63;27.664516;89.5;18 / 22;5017;2018-02-21 20:28:34:993
1.3029;6.9664;9.4014;0.8001;6.8194;7.0065;-0.5973;-0.2489;-2.4462;-0.2899;-0.0319;-0.349;6.279;-10.21;3.04;-28.54;16.13;-44.04;-6.51;2.0;1003.84;37.673;30.280647;-97.7097;486.99;NaN;;2.63;27.664516;89.5;18 / 22;5028;2018-02-21 20:28:35:004
